Time,GRS,Ax,Ay,Az,Gx,Gy,Gz,HR,SPO2
0.00,1033,-12924,5552,13232,381,-516,70,67,61
0.02,1040,-12964,5632,13400,375,-568,132,67,61
0.04,1025,-13080,5460,13424,369,-431,153,67,61
0.06,1034,-13004,5448,13252,369,-377,145,67,61
0.08,1032,-12956,5584,13228,399,-380,67,67,61
0.10,1037,-13168,5452,13272,404,-471,56,67,61
0.12,1041,-12960,5516,13376,436,-519,40,67,61
0.14,1046,-13056,5600,13428,387,-390,-4,67,61
0.16,1031,-12848,5492,13368,402,-379,-7,67,61
0.18,1045,-13012,5516,13308,365,-373,37,67,61
0.20,1038,-13032,5484,13436,373,-452,32,67,61
0.22,1040,-12844,5516,13300,374,-395,5,67,61
0.24,1027,-13080,5428,13220,350,-454,73,67,61
0.26,1032,-12988,5460,13252,408,-471,60,67,61
0.28,1044,-12984,5568,13348,362,-281,31,67,61
0.30,1016,-13148,5548,13136,401,-359,27,67,61
0.32,1040,-13004,5528,13308,411,-370,9,67,61
0.34,1024,-13128,5512,13236,349,-485,16,67,61
0.36,1045,-12956,5644,13328,345,-376,57,67,61
0.38,1039,-13068,5520,13396,348,-283,30,67,61
0.40,1032,-13128,5592,13156,353,-480,-20,67,61
0.42,1038,-13076,5476,13240,361,-394,2,67,61
0.44,1038,-13140,5568,13240,333,-615,-9,67,61
0.46,1032,-12816,5460,13476,328,-537,-13,67,61
0.48,1025,-12888,5464,13400,328,-401,21,67,61
0.50,1037,-13040,5392,13256,356,-414,13,67,61
0.52,1038,-13012,5420,13172,397,-297,46,67,61
0.54,1041,-13052,5472,13100,492,-365,62,67,61
0.56,1037,-13140,5600,13252,519,-413,43,67,61
0.58,1026,-13312,5800,13328,494,-465,13,67,61
0.60,1035,-12956,5724,13244,404,-428,-1,67,61
0.62,1044,-12984,5632,13280,354,-347,25,67,61
0.64,1027,-13020,5516,13108,298,-536,68,67,61
0.66,1032,-12932,5496,13152,338,-601,80,71,61
0.68,1044,-13100,5528,13456,353,-448,59,71,61
0.70,1042,-13132,5484,13340,352,-542,-35,71,61
0.72,1025,-13092,5500,13212,351,-625,-18,71,61
0.74,1042,-12944,5476,13336,329,-681,10,71,61
0.76,1042,-12968,5568,13512,307,-568,39,71,61
0.78,1036,-12932,5560,13184,306,-542,38,71,61
0.80,1041,-12936,5496,13348,295,-421,78,71,61
0.82,1042,-13112,5552,13176,331,-581,78,71,61
0.84,1035,-13000,5532,13388,336,-495,10,71,61
0.86,1042,-12972,5476,13276,334,-414,14,71,61
0.88,1037,-12976,5652,13188,365,-518,12,71,61
0.90,1031,-12836,5556,13276,365,-634,57,71,61
0.92,1046,-12980,5456,13508,357,-472,12,71,61
0.94,1047,-12916,5500,13340,368,-407,16,71,61
0.96,1027,-13004,5504,13304,339,-457,80,71,61
0.98,1050,-13016,5600,13448,323,-529,40,71,61
1.00,1024,-12976,5372,13196,332,-354,31,71,61
1.02,1041,-13132,5404,13180,392,-238,74,71,61
1.04,1053,-13088,5528,13436,420,-501,112,71,61
1.06,1024,-13004,5484,13272,380,-473,103,71,61
1.08,1044,-13164,5548,13228,389,-391,69,71,61
1.10,1025,-13056,5492,13216,360,-434,-9,71,61
1.12,1022,-12888,5556,13320,348,-388,1,71,61
1.14,1025,-13052,5720,13364,322,-426,66,71,61
1.16,1024,-13068,5616,13436,319,-458,78,71,61
1.18,1005,-13060,5544,13364,269,-476,56,71,61
1.20,1033,-12880,5468,13356,266,-400,36,71,61
1.22,1020,-13000,5496,13236,327,-423,-4,71,61
1.24,1030,-13052,5528,13260,376,-444,30,71,61
1.26,1045,-12988,5548,13312,364,-417,-16,71,61
1.28,1046,-13088,5632,13248,371,-283,-25,71,61
1.30,1033,-13164,5664,13184,345,-401,-51,71,61
1.32,1032,-12968,5540,13220,325,-486,-24,71,61
1.34,1039,-13120,5464,13240,302,-597,3,71,61
1.36,1033,-12960,5572,13368,304,-594,-22,71,61
1.38,1038,-13052,5648,13512,262,-514,-42,71,61
1.40,1047,-13132,5512,13348,191,-398,-145,71,61
1.42,1038,-12992,5392,13252,205,-502,-86,71,61
1.44,1041,-12988,5416,13376,261,-672,-39,71,61
1.46,1040,-12952,5440,13376,284,-662,20,71,61
1.48,1041,-13076,5528,13448,267,-517,52,71,61
1.50,1026,-12968,5528,13352,274,-536,26,71,61
1.52,1045,-13160,5448,13212,256,-541,11,71,61
1.54,1030,-12848,5396,13336,309,-568,21,71,61
1.56,1029,-12972,5376,13400,391,-520,62,71,61
1.58,1037,-13068,5464,13408,402,-454,55,71,61
1.60,1042,-13000,5456,13440,377,-467,21,71,61
1.62,1031,-13088,5432,13372,383,-471,12,71,61
1.64,1040,-12876,5496,13356,360,-448,39,71,61
1.66,1026,-12888,5488,13308,365,-378,32,71,61
1.68,1041,-13004,5516,13332,432,-391,89,71,61
1.70,1027,-13152,5464,13320,398,-581,53,71,61
1.72,1032,-12980,5448,13436,384,-504,38,71,61
1.74,1026,-13148,5476,13480,386,-356,22,71,61
1.76,1043,-12944,5520,13324,398,-363,9,71,61
1.78,1039,-12888,5440,13268,402,-308,55,71,61
1.80,1048,-13140,5504,13332,403,-566,78,71,61
1.82,1026,-12960,5488,13404,431,-570,133,71,61
1.84,1047,-13044,5612,13444,346,-471,110,71,61
1.86,1032,-13188,5592,13288,313,-330,14,71,61
1.88,1020,-13108,5416,13172,324,-389,8,71,61
1.90,1030,-12932,5444,13164,354,-582,48,71,61
1.92,1040,-12928,5552,13380,400,-510,110,71,61
1.94,1038,-13128,5508,13500,356,-381,77,71,61
1.96,1036,-13160,5540,13320,338,-270,40,71,61
1.98,1029,-13120,5504,13204,372,-446,51,71,61
2.00,1043,-12952,5492,13212,390,-540,20,71,61
2.02,1046,-13004,5488,13136,390,-435,25,71,61
2.04,1040,-13160,5472,13228,409,-457,14,71,61
2.06,1036,-13132,5560,13356,384,-401,13,71,61
2.08,1029,-13096,5568,13292,345,-570,-4,71,61
2.10,1038,-13036,5512,13232,362,-663,-45,71,61
2.12,1010,-12856,5500,13388,349,-610,-24,71,61
2.14,1048,-12896,5488,13344,342,-529,-21,71,61
2.16,1052,-13008,5592,13308,292,-502,-3,71,61
2.18,1030,-13020,5484,13400,264,-570,-18,71,61
2.20,1046,-13008,5360,13288,285,-514,-10,71,61
2.22,1032,-12976,5416,13392,363,-496,50,71,61
2.24,1040,-13164,5464,13440,374,-574,33,71,61
2.26,1034,-12904,5496,13356,345,-518,-8,71,61
2.28,1046,-12876,5396,13312,391,-471,-13,71,61
2.30,1028,-12880,5396,13432,385,-603,50,71,61
2.32,1027,-12728,5488,13564,389,-520,49,71,61
2.34,1048,-12996,5356,13404,416,-406,106,71,61
2.36,1018,-13064,5412,13480,365,-447,86,71,61
2.38,1026,-13072,5556,13268,361,-384,24,71,61
2.40,1030,-12888,5568,13420,373,-384,-23,71,61
2.42,1030,-12960,5520,13500,384,-433,32,71,61
2.44,1041,-13048,5552,13372,398,-516,78,71,61
2.46,1032,-12884,5508,13508,391,-508,54,71,61
2.48,1040,-12944,5524,13376,411,-339,49,71,61
2.50,1045,-12916,5412,13392,424,-288,46,71,61
2.52,1026,-13064,5512,13364,408,-384,57,71,61
2.54,1040,-13052,5556,13404,453,-557,37,71,61
2.56,1035,-12916,5456,13312,432,-433,43,71,61
2.58,1026,-12988,5568,13180,369,-394,40,71,61
2.60,1034,-12976,5676,13444,338,-393,-23,71,61
2.62,1035,-12964,5528,13368,333,-377,13,71,61
2.64,1027,-13088,5540,13236,307,-516,74,71,61
2.66,1043,-13064,5484,13248,348,-545,57,71,61
2.68,1040,-13004,5512,13404,389,-497,45,71,61
2.70,1042,-13024,5492,13416,403,-365,3,71,61
2.72,1038,-12956,5608,13380,387,-411,-9,71,61
2.74,1028,-13072,5516,13264,400,-441,0,71,61
2.76,1044,-13016,5544,13240,356,-487,4,71,61
2.78,1041,-13012,5560,13304,386,-501,-32,71,61
2.80,1047,-13056,5444,13320,353,-492,-15,71,61
2.82,1026,-13084,5624,13316,319,-527,-70,71,61
2.84,1026,-13036,5476,13272,282,-670,-2,71,61
2.86,1048,-13036,5408,13216,317,-748,-18,71,61
2.88,1055,-13048,5548,13420,261,-768,-1,71,61
2.90,1045,-13052,5452,13364,258,-1056,-20,71,61
2.92,1028,-12988,5416,13176,267,-1267,-41,71,61
2.94,1046,-12660,5368,13380,315,-1386,72,71,61
2.96,1024,-12560,5392,13640,368,-757,87,71,61
2.98,1029,-12860,5528,13572,337,-11,107,71,61
3.00,1024,-13192,5512,13388,339,-1,-21,71,61
3.02,1031,-13148,5472,13104,285,-500,-22,71,61
3.04,1028,-12796,5516,13204,396,-615,-4,71,61
3.06,1045,-12816,5512,13336,464,-396,93,71,61
3.08,1053,-12936,5556,13644,409,-247,71,71,61
3.10,1040,-13112,5612,13776,362,-136,6,71,61
3.12,1038,-12972,5536,13204,290,-391,-3,71,61
3.14,1041,-12964,5400,13248,330,-633,58,71,61
3.16,1046,-12892,5492,13344,435,-691,82,71,61
3.18,1026,-13060,5592,13456,465,-504,52,71,61
3.20,1040,-12984,5524,13676,394,-260,7,71,61
3.22,1041,-12960,5600,13528,324,-295,19,71,61
3.24,1030,-12928,5588,13352,358,-414,5,71,61
3.26,1049,-12824,5456,13284,433,-528,27,71,61
3.28,1040,-12868,5456,13408,429,-298,62,71,61
3.30,1049,-12952,5536,13384,442,-178,84,71,61
3.32,1044,-13116,5556,13480,361,-337,55,71,61
3.34,1026,-13092,5552,13252,379,-549,51,71,61
3.36,1022,-12888,5552,13320,409,-550,119,71,61
3.38,1030,-13092,5572,13552,449,-460,60,71,61
3.40,1044,-12956,5600,13548,380,-195,-66,71,61
3.42,1030,-13144,5524,13384,342,-192,-40,71,61
3.44,1028,-12956,5444,13160,371,-627,12,71,61
3.46,1022,-12792,5384,13400,416,-751,23,71,61
3.48,1028,-12812,5480,13516,436,-430,70,71,61
3.50,1037,-13016,5664,13496,428,-173,-11,71,61
3.52,1042,-13128,5600,13404,342,-185,-18,71,61
3.54,1027,-13148,5476,13132,320,-485,14,71,61
3.56,1038,-12900,5364,13140,363,-592,66,71,61
3.58,1025,-12996,5468,13324,426,-650,70,71,61
3.60,1044,-13040,5580,13564,371,-504,-33,71,61
3.62,1032,-12968,5488,13632,333,-405,-83,71,61
3.64,1032,-12808,5488,13320,318,-438,-60,67,57
3.66,1041,-12832,5512,13540,313,-393,-36,67,57
3.68,1037,-13032,5400,13384,320,-289,33,67,57
3.70,1042,-13124,5392,13508,312,-342,18,67,57
3.72,1034,-13144,5400,13324,336,-613,32,67,57
3.74,1030,-12948,5352,13400,378,-768,27,67,57
3.76,1039,-12876,5480,13344,473,-632,36,67,57
3.78,1037,-12920,5504,13616,438,-353,20,67,57
3.80,1029,-12916,5580,13440,395,-197,0,67,57
3.82,1040,-12872,5440,13260,366,-494,93,67,57
3.84,1041,-12828,5440,13200,386,-677,156,67,57
3.86,1026,-12876,5604,13316,422,-488,128,67,57
3.88,1029,-13048,5492,13376,424,-274,76,67,57
3.90,1029,-12992,5560,13512,425,-260,-19,67,57
3.92,1034,-12880,5480,13448,384,-385,-15,67,57
3.94,1034,-12800,5460,13332,420,-458,69,67,57
3.96,1034,-13032,5644,13392,398,-446,46,67,57
3.98,1037,-12964,5696,13656,338,-317,-28,67,57
4.00,1033,-13224,5436,13312,286,-231,-158,67,57
4.02,1048,-13044,5388,13012,362,-472,-180,67,57
4.04,1049,-12932,5408,13140,451,-849,-64,67,57
4.06,1032,-12740,5440,13616,476,-749,46,67,57
4.08,1025,-12852,5528,13660,429,-380,104,67,57
4.10,1025,-12984,5592,13672,357,-62,97,67,57
4.12,1032,-13084,5448,13348,267,-150,79,67,57
4.14,1028,-12976,5516,13016,360,-413,112,67,57
4.16,1027,-12948,5580,13132,485,-441,128,67,57
4.18,1041,-13136,5672,13240,505,-393,88,67,57
4.20,1044,-13132,5772,13548,457,-376,9,67,57
4.22,1037,-12992,5652,13384,324,-324,-42,67,57
4.24,1023,-12968,5440,13220,299,-584,-24,67,57
4.26,1025,-12856,5372,13176,347,-663,58,67,57
4.28,1046,-12976,5568,13508,416,-580,68,67,57
4.30,1025,-13032,5492,13408,368,-491,1,67,57
4.32,1028,-12984,5508,13328,308,-400,-13,67,57
4.34,1024,-13028,5600,13252,319,-464,7,67,57
4.36,1030,-12944,5488,13188,312,-584,42,67,57
4.38,1030,-12948,5452,13296,369,-631,64,67,57
4.40,1025,-12928,5388,13432,368,-545,52,67,57
4.42,1030,-12960,5508,13484,377,-462,18,67,57
4.44,1031,-13044,5416,13440,395,-437,-14,67,57
4.46,1026,-12920,5460,13300,427,-524,7,67,57
4.48,1040,-12836,5592,13420,448,-568,58,67,57
4.50,1040,-12796,5508,13364,427,-314,81,67,57
4.52,1033,-13120,5468,13504,361,-258,80,67,57
4.54,1037,-13008,5588,13392,317,-332,29,67,57
4.56,1032,-12824,5428,13164,353,-385,20,67,57
4.58,1027,-13048,5372,13312,437,-473,89,67,57
4.60,1042,-12968,5480,13344,435,-537,81,67,57
4.62,1040,-13004,5604,13448,458,-355,14,67,57
4.64,1034,-12960,5428,13452,409,-229,27,67,57
4.66,1028,-12896,5492,13124,415,-341,73,67,57
4.68,1030,-12824,5576,13284,417,-404,90,67,57
4.70,1040,-13056,5576,13380,398,-383,107,67,57
4.72,1047,-13076,5592,13400,389,-343,60,67,57
4.74,1020,-13156,5732,13296,375,-455,2,67,57
4.76,1038,-12852,5492,13344,379,-440,37,67,57
4.78,1042,-12888,5540,13360,405,-399,89,67,57
4.80,1041,-13184,5532,13468,382,-484,78,67,57
4.82,1027,-13088,5700,13428,329,-550,44,67,57
4.84,1043,-12836,5492,13368,293,-501,43,67,57
4.86,1042,-12816,5316,13312,348,-377,39,67,57
4.88,1028,-12868,5404,13196,429,-288,70,67,57
4.90,1039,-13152,5692,13360,470,-412,24,67,57
4.92,1025,-13036,5636,13240,475,-455,-28,67,57
4.94,1049,-13128,5700,13212,429,-385,-55,67,57
4.96,1033,-12904,5632,13400,417,-465,-20,67,57
4.98,1028,-13092,5532,13404,357,-475,25,67,57
5.00,1028,-12996,5540,13288,353,-512,70,67,57
5.02,1042,-12988,5528,13348,329,-513,27,67,57
5.04,1033,-12948,5532,13296,344,-282,-12,67,57
5.06,1028,-12952,5544,13368,392,-284,2,67,57
5.08,1022,-13016,5552,13332,356,-429,4,67,57
5.10,1044,-12928,5556,13300,312,-564,65,67,57
5.12,1028,-13024,5560,13412,296,-587,35,67,57
5.14,1028,-13052,5420,13184,334,-607,8,67,57
5.16,1021,-12908,5524,13324,365,-520,14,67,57
5.18,1028,-12980,5464,13396,423,-375,11,67,57
5.20,1044,-12984,5484,13268,449,-507,31,67,57
5.22,1032,-12720,5592,13412,418,-528,30,67,57
5.24,1040,-12968,5548,13196,364,-353,84,67,57
5.26,1023,-12932,5556,13304,329,-338,50,67,57
5.28,1032,-13004,5580,13240,318,-339,27,67,57
5.30,1039,-13100,5532,13256,376,-445,42,67,57
5.32,1036,-13032,5572,13428,360,-503,2,67,57
5.34,1042,-12940,5624,13356,394,-439,0,67,57
5.36,1036,-12904,5508,13376,396,-391,43,67,57
5.38,1028,-12836,5580,13428,394,-402,87,67,57
5.40,1033,-12988,5536,13392,343,-323,70,67,57
5.42,1032,-13132,5540,13216,317,-341,75,67,57
5.44,1026,-13148,5460,13308,342,-446,26,67,57
5.46,1023,-13084,5616,13348,385,-508,8,67,57
5.48,1048,-12980,5560,13440,340,-458,1,67,57
5.50,1018,-12924,5416,13372,314,-424,-7,67,57
5.52,1040,-12936,5420,13216,341,-353,73,67,57
5.54,1016,-13028,5540,13248,407,-326,112,67,57
5.56,1029,-13136,5584,13232,447,-366,39,67,57
5.58,1021,-13156,5832,13260,408,-371,-34,67,57
5.60,1042,-13180,5732,13248,364,-389,-66,67,57
5.62,1033,-12988,5544,13204,301,-506,-24,67,57
5.64,1041,-12848,5356,13372,350,-557,61,67,57
5.66,1025,-12912,5496,13316,363,-514,85,67,57
5.68,1020,-13196,5576,13396,345,-404,44,67,57
5.70,1037,-13104,5648,13320,285,-330,-63,67,57
5.72,1022,-12928,5508,13208,322,-430,-77,67,57
5.74,1038,-12992,5440,13144,358,-691,28,67,57
5.76,1040,-12756,5588,13424,359,-722,87,67,57
5.78,1040,-13024,5440,13508,316,-457,72,67,57
5.80,1031,-12932,5440,13404,305,-282,72,67,57
5.82,1040,-13084,5504,13336,327,-442,79,67,57
5.84,1025,-13040,5496,13220,370,-621,37,67,57
5.86,1039,-12904,5592,13380,362,-503,21,67,57
5.88,1028,-13000,5592,13280,373,-413,12,67,57
5.90,1029,-12948,5556,13412,349,-387,29,67,57
5.92,1045,-12880,5508,13252,353,-495,75,67,57
5.94,1042,-12884,5572,13396,304,-496,82,67,57
5.96,1026,-13036,5536,13328,319,-483,48,67,57
5.98,1029,-12996,5440,13244,361,-379,6,67,57
6.00,1026,-12972,5452,13392,416,-371,-17,67,57
6.02,1023,-13112,5556,13464,399,-476,-1,67,57
6.04,1043,-12956,5612,13324,370,-439,32,67,57
6.06,1028,-12928,5520,13344,365,-378,51,67,57
6.08,1042,-13008,5684,13332,340,-346,39,67,57
6.10,1045,-13052,5536,13372,346,-265,30,67,57
6.12,1033,-13080,5476,13300,383,-379,25,67,57
6.14,1040,-13100,5484,13188,387,-567,38,67,57
6.16,1029,-12932,5508,13408,399,-514,-44,67,57
6.18,1042,-13024,5560,13208,345,-356,-13,67,57
6.20,1043,-12984,5520,13420,305,-417,-14,67,57
6.22,1038,-13004,5632,13124,275,-507,69,67,57
6.24,1043,-13012,5492,13368,273,-543,20,67,57
6.26,1040,-12992,5432,13340,312,-418,16,67,57
6.28,1047,-13056,5436,13084,390,-290,5,67,57
6.30,1030,-13004,5420,13276,444,-304,8,67,57
6.32,1045,-13052,5680,13420,442,-366,15,67,57
6.34,1047,-13012,5660,13376,383,-412,59,67,57
6.36,1034,-13112,5488,13168,344,-405,-6,67,57
6.38,1024,-13132,5564,13096,340,-487,-3,67,57
6.40,1040,-13144,5480,13252,358,-567,-8,67,57
6.42,1036,-12976,5572,13308,347,-516,-33,67,57
6.44,1022,-13044,5476,13256,316,-473,-73,67,57
6.46,1031,-12996,5484,13320,306,-515,-43,67,57
6.48,1028,-12980,5436,13248,309,-604,-32,67,57
6.50,1031,-12976,5528,13480,311,-594,17,67,57
6.52,1040,-13124,5456,13384,286,-544,16,67,57
6.54,1044,-13016,5552,13320,263,-522,2,67,57
6.56,1038,-12932,5424,13220,339,-466,7,67,57
6.58,1026,-12912,5364,13344,396,-501,51,67,57
6.60,1028,-13056,5524,13376,443,-547,11,67,57
6.62,1044,-12992,5476,13284,350,-363,-41,77,56
6.64,1040,-12944,5424,13172,356,-392,21,77,56
6.66,1025,-12872,5388,13308,366,-443,58,77,56
6.68,1039,-13040,5476,13296,362,-479,43,77,56
6.70,1040,-13120,5544,13508,357,-433,31,77,56
6.72,1028,-13036,5480,13416,363,-413,7,77,56
6.74,1040,-13024,5408,13348,339,-478,34,77,56
6.76,1024,-12948,5568,13440,381,-507,23,77,56
6.78,1034,-12948,5488,13352,378,-385,35,77,56
6.80,1027,-13096,5504,13256,410,-349,16,77,56
6.82,1017,-12948,5592,13208,375,-375,41,77,56
6.84,1006,-12956,5464,13176,330,-454,38,77,56
6.86,1031,-13184,5608,13272,374,-491,72,77,56
6.88,1033,-12996,5612,13348,359,-498,-4,77,56
6.90,1040,-12960,5532,13220,299,-417,-10,77,56
6.92,1024,-12988,5468,13336,329,-407,1,77,56
6.94,1041,-12912,5524,13184,312,-461,10,77,56
6.96,1031,-12880,5464,13316,373,-444,34,77,56
6.98,1029,-13016,5316,13228,393,-359,26,77,56
7.00,1041,-13048,5488,13276,445,-358,44,77,56
7.02,1042,-13060,5504,13376,390,-350,29,77,56
7.04,1040,-13064,5604,13224,371,-469,32,77,56
7.06,1040,-13000,5560,13192,364,-520,20,77,56
7.08,1025,-13124,5524,13296,315,-516,-12,77,56
7.10,1040,-12944,5440,13448,333,-433,-53,77,56
7.12,1038,-13056,5476,13340,300,-440,-25,77,56
7.14,1036,-12976,5452,13252,290,-616,8,77,56
7.16,1036,-13068,5428,13348,293,-710,42,77,56
7.18,1043,-12908,5464,13348,313,-581,-5,77,56
7.20,1027,-12924,5424,13452,292,-459,-22,77,56
7.22,1012,-12888,5448,13272,307,-494,-2,77,56
7.24,1035,-13048,5356,13264,341,-601,-17,77,56
7.26,1024,-12920,5412,13348,430,-637,25,77,56
7.28,1017,-12968,5404,13264,438,-502,20,77,56
7.30,1033,-12920,5428,13464,413,-407,12,77,56
7.32,1037,-12964,5524,13316,365,-365,10,77,56
7.34,1026,-12944,5452,13244,387,-376,29,77,56
7.36,1032,-13056,5392,13440,382,-421,65,77,56
7.38,1032,-12928,5356,13428,389,-425,35,77,56
7.40,1034,-13004,5420,13400,418,-333,11,77,56
7.42,1030,-13076,5448,13248,413,-436,23,77,56
7.44,1032,-13024,5424,13308,429,-471,52,77,56
7.46,1047,-12988,5520,13280,399,-420,21,77,56
7.48,1047,-13032,5448,13304,385,-375,47,77,56
7.50,1038,-13064,5640,13388,386,-433,38,77,56
7.52,1040,-12928,5460,13344,370,-482,23,77,56
7.54,1042,-13004,5472,13268,375,-459,52,77,56
7.56,1024,-13016,5576,13428,384,-516,23,77,56
7.58,1036,-12876,5384,13288,337,-331,-46,77,56
7.60,1030,-13064,5512,13280,373,-504,55,77,56
7.62,1038,-13000,5520,13532,369,-778,74,77,56
7.64,1039,-13056,5628,13512,317,-524,17,77,56
7.66,1040,-13168,5476,13340,277,-455,-21,77,56
7.68,1045,-12960,5520,13364,247,-439,-35,77,56
7.70,1024,-12924,5352,13400,302,-495,62,77,56
7.72,1026,-13152,5360,13292,369,-524,97,77,56
7.74,1040,-12996,5404,13428,373,-581,40,77,56
7.76,1028,-12944,5460,13492,386,-408,3,77,56
7.78,1024,-12896,5512,13304,393,-362,-43,77,56
7.80,1044,-12988,5612,13332,437,-356,-11,77,56
7.82,1040,-12960,5484,13340,412,-367,41,77,56
7.84,1022,-12964,5528,13328,359,-446,84,77,56
7.86,1028,-13104,5528,13320,327,-466,24,77,56
7.88,1021,-13088,5508,13308,329,-470,1,77,56
7.90,1042,-12984,5484,13144,302,-407,-30,77,56
7.92,1042,-12888,5416,13232,314,-394,-14,77,56
7.94,1022,-13096,5524,13292,335,-512,41,77,56
7.96,1026,-13032,5500,13408,280,-551,6,77,56
7.98,1040,-12884,5432,13404,283,-540,23,77,56
8.00,1022,-12912,5524,13316,304,-340,42,77,56
8.02,1023,-12912,5424,13372,314,-330,42,77,56
8.04,1042,-13072,5232,13380,342,-493,37,77,56
8.06,1038,-12972,5328,13244,356,-494,128,77,56
8.08,1032,-13192,5552,13348,385,-387,120,77,56
8.10,1028,-13092,5476,13240,390,-326,66,77,56
8.12,1045,-13040,5424,13196,401,-483,18,77,56
8.14,1018,-12948,5604,13264,409,-589,34,77,56
8.16,1042,-12832,5496,13512,374,-495,60,77,56
8.18,1026,-12852,5440,13472,361,-334,27,77,56
8.20,1028,-12964,5372,13332,386,-307,76,77,56
8.22,1035,-12972,5504,13340,371,-412,68,77,56
8.24,1019,-12924,5368,13224,386,-453,26,77,56
8.26,1039,-13148,5496,13172,411,-389,47,77,56
8.28,1046,-12992,5536,13308,442,-433,12,77,56
8.30,1014,-12948,5504,13384,442,-394,-4,77,56
8.32,1037,-13092,5396,13328,444,-488,-19,77,56
8.34,1019,-12972,5464,13376,403,-493,55,77,56
8.36,1024,-12952,5544,13352,376,-445,25,77,56
8.38,1021,-12964,5536,13440,367,-391,36,77,56
8.40,1046,-13048,5540,13184,354,-461,40,77,56
8.42,1026,-12904,5556,13364,327,-462,52,77,56
8.44,1031,-13052,5460,13304,340,-431,87,77,56
8.46,1041,-13124,5564,13304,312,-539,14,77,56
8.48,1040,-12912,5368,13360,347,-371,-35,77,56
8.50,1042,-12900,5444,13296,389,-438,42,77,56
8.52,1024,-12920,5532,13264,397,-499,49,77,56
8.54,1026,-12892,5480,13360,407,-341,70,77,56
8.56,1038,-13052,5500,13216,400,-336,62,77,56
8.58,1030,-13060,5584,13264,466,-345,7,77,56
8.60,1037,-13184,5460,13132,441,-334,-6,77,56
8.62,1026,-12912,5620,13528,398,-623,-12,77,56
8.64,1038,-12788,5604,13336,333,-386,-26,77,56
8.66,1043,-12956,5512,13320,303,-376,13,77,56
8.68,1027,-12928,5384,13312,303,-516,75,77,56
8.70,1038,-13056,5456,13224,307,-556,87,77,56
8.72,1044,-13096,5316,13252,334,-415,34,77,56
8.74,1024,-13132,5384,13340,367,-426,50,77,56
8.76,1028,-12944,5472,13368,397,-469,17,77,56
8.78,1040,-12916,5476,13416,444,-528,39,77,56
8.80,1039,-12900,5496,13336,427,-494,68,77,56
8.82,1044,-13044,5504,13384,417,-461,32,77,56
8.84,1037,-13068,5428,13316,361,-356,-1,77,56
8.86,1027,-13072,5512,13404,367,-380,26,77,56
8.88,1022,-13044,5528,13424,371,-463,54,77,56
8.90,1037,-12912,5440,13376,399,-447,38,77,56
8.92,1040,-13176,5548,13384,416,-403,44,77,56
8.94,1043,-12904,5452,13384,402,-525,27,77,56
8.96,1041,-12988,5556,13320,405,-411,-1,77,56
8.98,1042,-12952,5560,13276,364,-528,-44,77,56
9.00,1042,-12948,5592,13252,393,-432,-4,77,56
9.02,1038,-13048,5472,13276,425,-489,13,77,56
9.04,1028,-12964,5488,13392,399,-367,122,77,56
9.06,1040,-13252,5516,13468,386,-415,89,77,56
9.08,1026,-13048,5628,13428,368,-484,26,77,56
9.10,1025,-12972,5480,13236,323,-288,-24,77,56
9.12,1045,-13100,5464,13232,338,-347,61,77,56
9.14,1042,-13016,5512,13348,382,-696,23,77,56
9.16,1042,-12968,5616,13476,329,-568,25,77,56
9.18,1042,-12792,5316,13396,386,-362,30,77,56
9.20,1022,-13048,5552,13308,458,-343,76,77,56
9.22,1045,-13128,5536,13320,441,-374,59,77,56
9.24,1037,-13072,5608,13324,416,-357,-2,77,56
9.26,1043,-13132,5568,13288,396,-361,11,77,56
9.28,1030,-13104,5624,13196,391,-422,32,77,56
9.30,1041,-13116,5464,13344,357,-568,10,77,56
9.32,1030,-12984,5368,13420,351,-495,7,77,56
9.34,1034,-13044,5504,13472,369,-485,-11,93,75
9.36,1038,-12824,5596,13576,320,-412,-18,93,75
9.38,1037,-13004,5368,13116,264,-472,34,93,75
9.40,1035,-12956,5232,12944,355,-509,107,93,75
9.42,1035,-13060,5384,13296,411,-591,84,93,75
9.44,1033,-13088,5596,13388,415,-596,-42,93,75
9.46,1040,-12796,5652,13364,411,-449,-14,93,75
9.48,1023,-12780,5512,13340,402,-452,46,93,75
9.50,1024,-13056,5476,13224,372,-378,130,93,75
9.52,1041,-13244,5464,13368,332,-431,71,93,75
9.54,1021,-13024,5440,13240,364,-388,29,93,75
9.56,1038,-13044,5552,13320,480,-425,53,93,75
9.58,1035,-12956,5560,13368,460,-440,45,93,75
9.60,1040,-12960,5584,13248,417,-364,90,93,75
9.62,1039,-13024,5548,13372,397,-369,109,93,75
9.64,1028,-13188,5572,13148,410,-378,80,93,75
9.66,1035,-13016,5492,13248,405,-406,-13,93,75
9.68,1034,-13088,5572,13232,413,-363,7,93,75
9.70,1040,-13088,5632,13292,363,-480,13,93,75
9.72,1031,-12988,5628,13280,350,-461,14,93,75
9.74,1038,-13164,5460,13468,355,-496,24,93,75
9.76,1028,-13028,5524,13464,324,-592,14,93,75
9.78,1040,-12924,5404,13368,296,-513,41,93,75
9.80,1044,-12928,5476,13236,341,-376,91,93,75
9.82,1024,-13012,5528,13192,406,-223,102,93,75
9.84,1037,-13136,5580,13124,434,-179,86,93,75
9.86,1039,-13372,5680,13292,469,-486,34,93,75
9.88,1043,-13208,5796,13500,413,-646,-53,93,75
9.90,1029,-13000,5748,13272,317,-467,-48,93,75
9.92,1039,-12936,5520,13160,304,-413,16,93,75
9.94,1038,-13008,5412,13196,312,-513,80,93,75
9.96,1040,-12932,5500,13260,341,-557,76,93,75
9.98,1026,-13096,5576,13356,379,-524,-16,93,75
10.00,1026,-12968,5556,13372,315,-425,-31,93,75
10.02,1039,-12848,5416,13372,323,-401,8,93,75
10.04,1035,-13128,5452,13220,336,-443,48,93,75
10.06,1029,-13072,5452,13180,391,-448,45,93,75
10.08,1028,-13064,5584,13272,381,-444,-34,93,75
10.10,1038,-12924,5488,13292,407,-409,-8,93,75
10.12,1040,-12980,5440,13176,411,-528,24,93,75
10.14,1041,-13028,5480,13192,382,-547,74,93,75
10.16,1021,-12956,5492,13524,386,-436,75,93,75
10.18,1029,-13080,5596,13340,327,-313,32,93,75
10.20,1045,-13076,5472,13196,346,-247,27,93,75
10.22,1038,-13068,5464,13100,377,-399,31,93,75
10.24,1033,-13068,5484,13260,407,-470,17,93,75
10.26,1038,-13092,5540,13328,417,-559,50,93,75
10.28,1024,-13068,5604,13440,419,-456,52,93,75
10.30,1036,-13024,5496,13428,365,-306,43,93,75
10.32,1040,-12940,5540,13344,337,-275,41,93,75
10.34,1038,-12960,5544,13128,372,-487,44,93,75
10.36,1026,-13060,5568,13028,393,-438,52,93,75
10.38,1032,-13176,5548,13040,378,-433,-21,93,75
10.40,1035,-13104,5516,13272,354,-490,-10,93,75
10.42,1024,-13092,5648,13312,358,-533,-9,93,75
10.44,1028,-12980,5572,13340,311,-486,32,93,75
10.46,1032,-12844,5372,13384,288,-392,60,93,75
10.48,1040,-13024,5380,13124,337,-322,92,93,75
10.50,1038,-13216,5584,13168,390,-376,49,93,75
10.52,1042,-13148,5608,13264,377,-470,-30,93,75
10.54,1040,-12944,5632,13212,377,-386,-74,93,75
10.56,1019,-12972,5480,13152,364,-390,-16,93,75
10.58,1025,-13008,5564,13212,340,-598,6,93,75
10.60,1028,-13060,5544,13268,287,-575,6,93,75
10.62,1024,-13184,5540,13400,264,-422,-33,93,75
10.64,1025,-13124,5352,13132,254,-461,-45,93,75
10.66,1036,-12956,5480,13116,333,-639,-129,93,75
10.68,1027,-13008,5460,13316,337,-625,-91,93,75
10.70,1035,-12936,5388,13384,337,-746,-97,93,75
10.72,1026,-12772,5328,13340,316,-571,-6,93,75
10.74,1028,-12924,5404,13424,337,-467,69,93,75
10.76,1028,-13076,5392,13368,338,-459,93,93,75
10.78,1018,-12976,5572,13288,399,-464,53,93,75
10.80,1036,-13120,5464,13164,357,-433,55,93,75
10.82,1029,-13152,5568,13112,391,-522,41,93,75
10.84,1048,-12940,5520,13344,374,-424,-9,93,75
10.86,1028,-13084,5472,13260,338,-365,31,93,75
10.88,1022,-12908,5404,13372,360,-478,64,93,75
10.90,1010,-13084,5412,13204,376,-541,90,93,75
10.92,1028,-13132,5568,13340,379,-527,31,93,75
10.94,1037,-13104,5488,13316,398,-416,12,93,75
10.96,1040,-13100,5492,13280,362,-391,-3,93,75
10.98,1037,-13012,5580,13328,368,-468,5,93,75
11.00,1032,-12964,5476,13224,389,-489,58,93,75
11.02,1045,-13064,5504,13360,372,-396,64,93,75
11.04,1047,-13068,5456,13412,375,-343,47,93,75
11.06,1024,-13092,5468,13276,364,-308,-17,93,75
11.08,1033,-13112,5536,13180,375,-409,14,93,75
11.10,1039,-13068,5476,13224,400,-515,34,93,75
11.12,1037,-13080,5456,13220,398,-443,40,93,75
11.14,1026,-13096,5496,13300,357,-381,44,93,75
11.16,1040,-13116,5624,13356,319,-397,21,93,75
11.18,1040,-13196,5564,13400,281,-455,27,93,75
11.20,1020,-13036,5412,13124,287,-547,15,93,75
11.22,1024,-12828,5472,13172,373,-419,24,93,75
11.24,1031,-12996,5472,13244,394,-382,42,93,75
11.26,1044,-13180,5560,13500,418,-370,39,93,75
11.28,1029,-13100,5628,13328,396,-374,10,93,75
11.30,1021,-13020,5700,13176,386,-430,33,93,75
11.32,1035,-13108,5640,13172,356,-514,56,93,75
11.34,1030,-13084,5572,13268,344,-580,20,93,75
11.36,1031,-13156,5580,13448,292,-530,-74,93,75
11.38,1048,-13028,5448,13164,278,-550,-43,93,75
11.40,1030,-12916,5336,13280,319,-580,-60,93,75
11.42,1030,-12964,5468,13196,342,-612,6,93,75
11.44,1026,-13092,5524,13348,315,-526,7,93,75
11.46,1040,-13152,5480,13392,299,-451,-31,93,75
11.48,1031,-13052,5460,13388,281,-515,-28,93,75
11.50,1044,-12940,5432,13248,307,-594,22,93,75
11.52,1021,-12868,5536,13072,389,-661,25,93,75
11.54,1022,-13044,5536,13416,385,-498,29,93,75
11.56,1042,-12948,5412,13404,356,-342,5,93,75
11.58,1021,-13064,5372,13224,328,-350,9,93,75
11.60,1032,-12968,5460,13284,364,-499,25,93,75
11.62,1036,-12944,5464,13112,360,-451,30,93,75
11.64,1030,-12940,5428,13396,388,-389,72,93,75
11.66,1040,-12992,5444,13440,397,-406,45,93,75
11.68,1029,-12948,5560,13412,381,-378,-2,93,75
11.70,1032,-13048,5348,13312,365,-391,-9,93,75
11.72,1025,-13020,5404,13148,385,-423,28,93,75
11.74,1048,-13008,5424,13204,387,-444,42,93,75
11.76,1039,-13076,5532,13224,395,-373,41,93,75
11.78,1025,-13064,5444,13412,351,-355,70,93,75
11.80,1036,-13136,5516,13384,399,-387,48,93,75
11.82,1026,-13036,5452,13164,410,-378,43,93,75
11.84,1024,-13152,5416,13228,377,-478,33,93,75
11.86,1042,-12988,5468,13448,358,-474,23,93,75
11.88,1037,-12984,5504,13220,361,-401,40,93,75
11.90,1038,-13220,5548,13252,349,-508,39,93,75
11.92,1028,-13052,5492,13340,301,-497,9,93,75
11.94,1030,-13140,5460,13260,301,-421,3,93,75
11.96,1040,-13072,5292,13288,358,-468,18,93,75
11.98,1039,-13072,5404,13296,377,-569,60,93,75
12.00,1040,-13164,5536,13460,360,-518,11,93,75
12.02,1026,-12968,5456,13204,372,-454,-2,93,75
12.04,1026,-13004,5520,13360,355,-333,-1,93,75
12.06,1034,-13144,5536,13288,386,-483,49,93,75
12.08,1038,-13056,5628,13212,348,-658,35,93,75
12.10,1030,-13016,5440,13284,334,-544,24,93,75
12.12,1028,-13004,5408,13232,384,-525,-51,93,75
12.14,1026,-12932,5444,13288,423,-580,-78,93,75
12.16,1043,-12904,5412,13188,441,-613,-7,93,75
12.18,1035,-12992,5376,13308,464,-662,6,93,75
12.20,1040,-13172,5524,13392,397,-623,4,93,82
12.22,1040,-13144,5576,13388,340,-576,-43,93,82
12.24,1028,-13060,5532,13164,305,-649,-133,93,82
12.26,1018,-12976,5316,13204,358,-754,-107,93,82
12.28,1034,-12944,5372,13268,459,-901,-26,93,82
12.30,1025,-12876,5532,13364,438,-757,3,93,82
12.32,1039,-13072,5560,13532,428,-678,-42,93,82
12.34,1016,-13076,5672,13608,351,-829,-38,93,82
12.36,1048,-13020,5508,13420,358,-962,-38,93,82
12.38,1045,-13152,5456,13408,359,-874,-60,93,82
12.40,1036,-12900,5548,13448,410,-855,-86,93,82
12.42,1023,-12960,5412,13332,389,-1087,-91,93,82
12.44,1048,-12800,5260,13276,433,-1205,-50,93,82
12.46,1018,-13088,5548,13708,371,-1204,-37,93,82
12.48,1027,-12972,5568,13788,340,-1088,-72,93,82
12.50,1045,-12896,5488,13596,239,-1267,-143,93,82
12.52,1033,-12788,5336,13556,195,-1591,-223,93,82
12.54,1037,-12752,5208,13724,200,-1738,-307,93,82
12.56,1030,-12536,5276,13752,210,-1660,-265,93,82
12.58,1039,-12784,5360,14008,208,-1495,-167,93,82
12.60,1029,-12832,5564,13820,202,-1671,-154,93,82
12.62,1025,-12760,5596,13956,43,-1802,-157,93,82
12.64,1016,-12684,5572,14116,-116,-2046,-182,93,82
12.66,1030,-12600,5448,14176,-336,-2097,-208,93,82
12.68,1034,-12692,5420,14184,-525,-2184,-127,93,82
12.70,1042,-12796,5452,14320,-595,-2306,20,93,82
12.72,1037,-13004,5304,14260,-673,-2697,65,93,82
12.74,1036,-12912,5436,14616,-802,-3052,68,93,82
12.76,1047,-12912,5284,14492,-1062,-3266,42,93,82
12.78,1044,-12928,5080,14540,-1185,-3291,144,93,82
12.80,1033,-12712,5172,14440,-1185,-3459,388,93,82
12.82,1038,-12592,5304,14392,-1206,-3758,597,93,82
12.84,1035,-12316,5304,14432,-1279,-4198,775,93,82
12.86,1032,-11772,5388,14680,-1313,-4426,1234,93,82
12.88,1035,-11448,5464,14888,-1362,-4435,1786,93,82
12.90,1022,-11396,5368,14980,-1445,-4513,2359,93,82
12.92,1043,-11452,5480,14948,-1429,-4665,2867,93,82
12.94,1008,-11136,5500,14988,-1403,-4862,3284,93,82
12.96,1019,-11060,5472,15248,-1512,-4990,3669,93,82
12.98,1038,-10824,5616,15700,-1732,-4893,3967,93,82
13.00,1025,-10728,5616,15796,-1934,-4729,4186,93,82
13.02,1043,-10812,5592,16100,-2105,-4812,4240,93,82
13.04,1030,-10760,5820,16232,-2256,-4972,4273,93,82
13.06,1029,-11068,5784,16416,-2483,-5324,4191,93,82
13.08,1029,-10880,5864,16484,-2605,-5755,4027,93,82
13.10,1028,-10652,5880,16816,-2793,-5731,3851,93,82
13.12,1032,-10396,5956,17228,-3005,-5482,3428,93,82
13.14,1034,-10136,5804,17216,-3245,-5427,3097,93,82
13.16,1027,-9736,5816,17204,-3406,-5152,2850,93,82
13.18,1028,-9124,5684,17192,-3417,-4519,2671,93,82
13.20,1033,-9092,5696,17432,-3438,-3826,2517,93,82
13.22,1022,-8432,5636,17252,-3187,-3317,2691,93,82
13.24,1024,-8344,5628,17320,-2720,-2861,2890,93,82
13.26,1038,-8324,5780,17652,-2146,-2807,3074,93,82
13.28,1020,-7800,5516,17976,-1561,-2814,3288,93,82
13.30,1021,-7792,5172,18368,-1158,-2364,3208,93,82
13.32,1037,-8320,4836,18460,-907,-2287,2801,93,82
13.34,1026,-8572,4892,18192,-776,-3232,2291,93,82
13.36,1032,-7748,4932,17884,-695,-3953,1709,93,82
13.38,1024,-7256,5000,17704,-633,-3501,1305,93,82
13.40,1032,-7240,5292,17868,-506,-2671,1114,93,82
13.42,1021,-7756,5460,17920,-329,-2599,1056,93,82
13.44,1014,-8008,5628,18080,-62,-3229,944,93,82
13.46,1024,-7620,5268,18144,53,-3913,747,93,82
13.48,1027,-7096,4760,17720,39,-4011,533,93,82
13.50,1025,-6720,5400,17948,-512,-2840,685,93,82
13.52,1024,-7996,4968,18604,-910,-1163,64,93,82
13.54,1020,-8656,5084,17868,-1052,-2094,-521,93,82
13.56,1032,-7960,5052,17752,-1042,-2449,-1164,93,82
13.58,1020,-7584,4752,17148,-731,-1760,-1554,93,82
13.60,1036,-7592,4184,17200,-195,-1695,-1919,93,82
13.62,1013,-7556,3548,17564,503,-2562,-2362,93,82
13.64,1049,-7116,3220,18068,1089,-3098,-2654,93,82
13.66,1031,-8388,2612,17644,1100,-5420,-4294,93,82
13.68,1036,-8812,2444,17956,2482,-10949,-3985,93,82
13.70,1040,-7084,3324,18688,3717,-14921,-3901,93,82
13.72,1043,-6176,3968,19496,4818,-17527,-4036,93,82
13.74,1017,-4680,4760,20416,5441,-19133,-3947,93,82
13.76,1024,-1624,5900,21396,5356,-17920,-3395,93,82
13.78,1047,-508,6136,21780,3992,-14291,-3454,93,82
13.80,1024,-316,6544,21688,2769,-11177,-2617,93,82
13.82,1032,-788,6212,22240,1495,-9260,-3190,93,82
13.84,1034,392,7000,22456,-23,-4400,-2807,93,82
13.86,1047,884,6480,23136,-1087,659,-3102,93,82
13.88,1036,-256,7480,24056,-2545,6054,-3643,93,82
13.90,1036,-4568,10224,24976,-4251,9028,-3110,93,82
13.92,1041,-10060,7424,25984,-7016,-1109,-6679,93,82
13.94,1018,-3080,11788,25012,-8127,-7369,-4802,93,82
13.96,1021,1980,12300,22944,-11442,-448,-5586,93,82
13.98,1030,468,10636,20372,-14126,6360,-5946,93,82
14.00,1039,-1912,8660,19060,-14802,6950,-6104,93,82
14.02,1040,-1600,7652,18512,-14059,6478,-5573,93,82
14.04,1029,-1212,6772,17600,-13468,8204,-5391,93,82
14.06,1037,-1860,4492,16440,-11819,8717,-4570,93,82
14.08,1019,-3224,2788,16844,-9939,7436,-3014,93,82
14.10,1045,-3500,2344,17488,-8229,5696,-1263,93,82
14.12,1017,-2188,1604,18308,-6970,4914,1452,93,82
14.14,1049,-1024,1576,17076,-6224,5646,4149,93,82
14.16,1017,-1256,604,15008,-5290,5886,6908,93,82
14.18,1030,-2304,-784,14536,-3633,4653,9139,93,82
14.20,1041,-1960,-1356,14704,-1914,2660,11725,93,82
14.22,1041,-2924,-956,16096,-681,1288,14304,93,82
14.24,1008,-2700,-1256,15584,165,1663,16430,93,82
14.26,1031,-2036,-2176,14776,1982,2721,19084,93,82
14.28,1037,-4580,-1576,14104,3156,6378,19512,93,82
14.30,1022,-8660,-1108,14548,2939,10393,18188,93,82
14.32,1040,-15268,-2128,17008,2458,4522,17099,93,82
14.34,1042,-10480,-3080,17212,6265,-4911,17430,93,82
14.36,1030,-5816,456,17240,8158,-3361,15534,93,82
14.38,1011,-5576,1560,14964,9324,5093,14845,93,82
14.40,1040,-7532,1096,11792,10675,5825,15506,93,82
14.42,1030,-10168,1660,11720,14517,2759,14297,93,82
14.44,1016,-9832,5924,13072,17164,6879,12649,93,82
14.46,1026,-8876,6188,12676,18324,10755,13148,93,82
14.48,1038,-10656,5784,11980,19735,9370,12984,93,82
14.50,1040,-15700,6428,11236,21139,-2041,12068,93,82
14.52,1040,-18212,2420,17292,22280,-16015,8569,93,82
14.54,1036,-16948,8256,21684,17804,-19925,2050,93,82
14.56,1021,-13740,10232,25804,16222,-14686,77,93,82
14.58,1032,-13416,12004,26972,14011,-8835,-328,93,82
14.60,1029,-4688,13964,26008,12665,-5058,-2533,93,82
14.62,1042,1260,12428,22732,10967,-4805,-4629,93,82
14.64,1038,2392,11632,19860,12026,-2415,-5422,93,82
14.66,1035,-440,11836,22772,12674,1370,-5189,93,82
14.68,1041,-3828,11948,23332,10965,5080,-4296,93,82
14.70,1036,-7108,11272,19000,9347,9225,-2707,93,82
14.72,1026,-7656,11176,13004,8548,10782,-1227,93,82
14.74,1040,-8968,12088,10668,7428,7124,-405,93,82
14.76,1033,-10916,12424,11936,6682,4520,214,93,82
14.78,1043,-8052,13364,14664,5911,4521,735,93,82
14.80,1037,-7376,13916,14008,5239,4430,1052,93,82
14.82,1028,-8596,14736,13864,5104,3279,879,93,82
14.84,1024,-9052,14840,12716,5180,2574,482,93,82
14.86,1037,-6752,15284,12580,4544,2330,-556,93,82
14.88,1043,-7008,13560,11568,3689,1936,-917,93,82
14.90,1037,-8880,12568,10680,3225,1134,-464,93,82
14.92,1026,-9316,13472,10744,2513,-9,138,93,82
14.94,1022,-6220,12468,10836,1269,-392,366,93,82
14.96,1034,-8200,13248,10540,819,-677,642,93,82
14.98,1038,-7420,13668,11204,-8,-1086,833,93,82
15.00,1024,-7368,13524,11152,-981,-1137,879,93,82
15.02,1042,-7872,13836,10716,-2137,-1394,1039,93,82
15.04,1045,-8044,13300,10912,-3187,-1906,1460,93,82
15.06,1024,-8388,13152,11508,-3773,-2923,2400,93,82
15.08,1036,-8212,13232,12756,-3711,-3350,3077,93,82
15.10,1020,-7296,13324,13512,-3216,-3308,3434,93,82
15.12,1040,-6884,14128,13084,-2559,-2846,3690,93,82
15.14,1035,-6736,13452,13176,-2621,-2171,4545,93,82
15.16,1038,-6772,13324,13480,-1998,-1646,5261,93,82
15.18,1046,-5576,13376,13864,-1715,-870,5250,76,80
15.20,1038,-6500,12764,11844,-1405,-48,6054,76,80
15.22,1041,-6356,12512,13300,-869,-629,6563,76,80
15.24,1040,-5944,13064,14484,-650,-366,6728,76,80
15.26,1024,-5416,13468,13876,5,690,6997,76,80
15.28,1027,-5964,14096,13328,809,897,7227,76,80
15.30,1030,-4260,14136,14124,1380,843,7185,76,80
15.32,1025,-4220,14428,14452,1295,1375,7182,76,80
15.34,1027,-5032,13576,12108,1053,990,7515,76,80
15.36,1029,-4548,14100,11676,1677,1530,7924,76,80
15.38,1048,-4828,14108,12152,1531,1757,7728,76,80
15.40,1018,-4156,13488,12936,1567,1243,7588,76,80
15.42,1028,-3280,14324,13060,1363,811,7781,76,80
15.44,1029,-3896,15324,11668,905,1714,7915,76,80
15.46,1030,-3872,15176,11196,796,2138,7927,76,80
15.48,1028,-2204,14784,11252,1144,2993,7282,76,80
15.50,1032,-404,13344,11884,1313,3389,6918,76,80
15.52,1033,-1424,13012,12648,1602,2308,7406,76,80
15.54,1037,-3068,14020,13156,1909,1471,7345,76,80
15.56,1031,-3088,14252,14120,2224,1014,7295,76,80
15.58,1023,-3356,14584,14072,2101,1275,6847,76,80
15.60,1040,-1848,14368,13212,2418,719,6605,76,80
15.62,1035,-1180,15244,12716,2527,146,6407,76,80
15.64,1028,-500,16000,12392,2440,233,5849,76,80
15.66,1024,60,14488,11428,2315,805,5477,76,80
15.68,1040,-1344,14296,11240,2961,806,5467,76,80
15.70,1027,-2228,14428,11784,3531,348,5259,76,80
15.72,1035,-2012,15592,12528,3952,914,4520,76,80
15.74,1020,-1796,15984,12584,4128,1694,3135,76,80
15.76,1024,-652,17008,12260,4158,2331,1673,76,80
15.78,1037,2724,16680,12168,3532,1728,1474,76,80
15.80,1032,3172,15716,11112,2906,1416,1930,76,80
15.82,1034,256,15260,10292,2491,471,2102,76,80
15.84,1041,-1596,14836,9616,2990,-842,1737,76,80
15.86,1018,-1632,15884,10476,4002,313,1242,76,80
15.88,1027,-1980,17012,11900,4207,2444,337,76,80
15.90,1036,-1552,17596,12976,4047,2656,-298,76,80
15.92,1026,352,18340,13992,3115,3444,-1304,76,80
15.94,1026,2304,17644,11400,1255,6156,-2737,76,80
15.96,1029,1652,15868,10144,1774,8019,-3349,76,80
15.98,1020,60,16504,11096,2121,6585,-3094,76,80
16.00,1043,-3068,17080,12820,1822,3405,-3377,76,80
16.02,1040,-6668,16744,14276,-586,1018,-4897,76,80
16.04,1033,-10004,14628,13120,-3187,-935,-8031,76,80
16.06,1032,-10452,13368,10840,-3845,-2333,-11426,76,80
16.08,1043,-8808,13464,11476,-4417,767,-14730,76,80
16.10,1046,-8020,13048,13024,-6055,5281,-16815,76,80
16.12,996,-11568,11860,14080,-8025,6687,-19219,76,80
16.14,1017,-12052,11188,15000,-9488,3229,-21119,76,80
16.16,1039,-12764,10244,11212,-8845,-7981,-21181,76,80
16.18,1021,-8504,9560,9092,-6545,-10323,-22980,76,80
16.20,1037,-5096,8832,8464,-5582,-6474,-22026,76,80
16.22,1042,-5892,10208,10824,-5135,-3636,-19979,76,80
16.24,1034,-5468,12744,12176,-4685,-2909,-17506,76,80
16.26,1028,-7116,14036,12036,-5202,-3905,-17272,76,80
16.28,1040,-14828,15760,13452,-6453,-8811,-19623,76,80
16.30,1010,-13260,14664,12992,-4836,-15929,-20869,76,80
16.32,1052,-7336,14660,12108,-3733,-17740,-20751,76,80
16.34,1018,-6320,13216,13292,-3652,-15349,-19698,76,80
16.36,1024,-7712,13436,13716,-687,-15390,-17448,76,80
16.38,1040,-5252,12088,13200,2258,-13246,-14470,76,80
16.40,1037,-2560,9696,12724,4868,-8191,-11579,76,80
16.42,1021,-1840,7644,12948,7180,-4287,-8138,76,80
16.44,1042,-4368,7432,13616,8435,-3981,-5244,76,80
16.46,1036,-7144,8264,14120,8876,-6441,-3723,76,80
16.48,1034,-7444,8100,13024,10473,-10944,-2590,76,80
16.50,1041,-8388,9112,10764,10955,-16914,-1683,76,80
16.52,1040,-10272,8692,8072,12755,-24121,-2786,76,80
16.54,1018,-7404,8724,7632,16483,-29872,-2465,76,80
16.56,1024,-2040,11500,9880,16916,-31657,-529,76,80
16.58,1029,-16,13736,13240,16779,-25946,-320,76,80
16.60,1033,-280,14064,13556,16588,-16990,-1543,76,80
16.62,1036,-764,13836,13836,15403,-9699,-1228,76,80
16.64,1042,-2316,12712,15560,15296,-3432,-1489,76,80
16.66,1037,-4820,15252,17764,13129,1340,-1167,76,80
16.68,1037,-8312,14188,19260,10626,186,-554,76,80
16.70,1019,-9304,15256,20344,8876,-3747,-149,76,80
16.72,1031,-6232,13812,20348,7271,-3590,729,76,80
16.74,1018,-6136,13696,15228,7522,-1836,-233,76,80
16.76,1021,-6716,14540,11512,7670,-3239,-505,76,80
16.78,1021,-6440,14456,9444,8602,-7282,-1454,76,80
16.80,1036,-4460,14392,8660,9855,-9733,-1844,76,80
16.82,1028,-736,15292,11472,10292,-7931,-879,76,80
16.84,1032,2744,15828,13972,9545,-2519,-126,76,80
16.86,1028,2124,16420,13828,8675,2974,-402,76,80
16.88,1037,-644,16864,11300,8802,6460,-737,76,80
16.90,1037,-2216,17160,10056,9337,7419,-67,76,80
16.92,1036,-4276,17736,9588,9374,7507,349,76,80
16.94,1020,-4696,15904,8132,10026,5887,1211,76,80
16.96,1033,-3444,14840,6952,11162,5183,2908,76,80
16.98,1026,-3496,15288,8068,11067,6992,4388,76,80
17.00,1039,-3660,13480,10032,11682,9112,5420,76,80
17.02,1010,-9412,14972,11312,11001,8561,5869,76,80
17.04,1028,-8584,13384,11268,12828,6451,7012,76,80
17.06,1040,-5704,12772,10732,13154,7258,8575,76,80
17.08,1040,-5908,14128,6808,14007,5509,10164,76,80
17.10,1028,-4780,16768,4232,16395,1079,12127,76,80
17.12,1023,-3948,20084,8092,17519,-1987,11740,76,80
17.14,1041,236,19848,6084,16485,205,8729,76,80
17.16,1040,-1496,17832,1888,15530,848,8490,76,80
17.18,1044,-1960,17900,472,15372,-858,9027,76,80
17.20,1024,-2540,18372,3128,15669,-1707,9245,76,80
17.22,1034,-728,17052,3928,15450,-1181,8264,76,80
17.24,1034,968,15924,1824,14956,355,8110,76,80
17.26,1038,-1344,17504,-548,13884,-249,8651,76,80
17.28,1038,1660,19308,-3084,13735,-1072,7850,76,80
17.30,1040,-1836,19728,1616,12875,401,6570,76,80
17.32,1029,-72,21000,1584,10158,4242,6273,76,80
17.34,1035,-3416,23400,3604,8248,5330,6181,76,80
17.36,1044,-152,23592,2164,6224,5723,5174,76,80
17.38,1042,1428,22780,-4408,5540,6068,5076,76,80
17.40,1040,2056,24872,-5268,5705,7051,4163,76,80
17.42,1042,1704,26440,-2952,4773,8942,2228,76,80
17.44,1036,1148,26232,-1556,2245,6618,-873,76,80
17.46,1036,-3824,23856,2016,1045,-1298,-7162,76,80
17.48,1048,3388,22280,1992,1190,-8145,-9606,76,80
17.50,1041,8836,21012,1536,-1618,-3279,-11692,76,80
17.52,1045,8988,19776,2044,-4756,7581,-12810,76,80
17.54,1039,7968,19288,1392,-6626,19922,-13880,76,80
17.56,1027,9784,18096,620,-7524,31620,-13470,76,80
17.58,1040,7800,16508,1380,-7970,32767,-12888,76,80
17.60,1032,2828,16184,2104,-8004,32767,-13166,76,80
17.62,1040,-1116,17296,1756,-8383,32767,-13554,76,80
17.64,1037,-3040,16948,1620,-8342,32767,-14765,76,80
17.66,1027,-2896,16260,2148,-7293,25467,-16906,76,80
17.68,1045,-2868,15856,2996,-6953,18690,-18877,76,80
17.70,1046,-2856,15964,3872,-6534,12992,-20662,76,80
17.72,1041,-2228,17088,3524,-6268,9586,-21932,76,80
17.74,1037,-1260,16888,2940,-6492,8158,-22871,76,80
17.76,1032,-1616,15488,2524,-6595,7158,-23395,76,80
17.78,1038,-2908,15016,2704,-6295,5224,-23122,76,80
17.80,1042,-3384,15004,2800,-6698,2937,-22175,76,80
17.82,1040,-2484,14184,2992,-7559,1790,-20930,76,80
17.84,1038,-2180,13408,3468,-8501,1995,-19747,76,80
17.86,1035,-2864,14196,4108,-9429,2206,-18642,76,80
17.88,1028,-2844,14700,4048,-10525,2261,-17653,76,80
17.90,1042,-1920,13500,3864,-11311,2845,-16315,76,80
17.92,1035,-1904,11752,3772,-11494,3889,-14336,76,80
17.94,1041,-3580,10768,3996,-11128,4148,-12082,76,80
17.96,1032,-5960,10544,4508,-10755,2682,-9713,76,80
17.98,1031,-7928,10676,4876,-10281,-258,-8014,76,80
18.00,1042,-9152,10916,5512,-9800,-3449,-6899,76,80
18.02,1035,-9344,11228,5884,-9368,-6714,-5882,76,80
18.04,1052,-8940,11188,6276,-9034,-9485,-5125,76,80
18.06,1034,-8736,11096,6492,-8601,-11471,-4645,76,80
18.08,1047,-9096,11156,6708,-8381,-12261,-3969,76,80
18.10,1039,-8888,11044,6824,-7959,-12153,-2896,76,80
18.12,1036,-8228,10352,6472,-7192,-9591,-1480,76,80
18.14,1041,-7860,9468,6592,-6381,-5700,535,76,80
18.16,1030,-8764,9316,7224,-5470,-1871,2554,76,80
18.18,1034,-10624,9296,7780,-4851,403,3807,76,75
18.20,1039,-11876,9312,8152,-4167,515,4442,76,75
18.22,1037,-12752,9636,8176,-3580,-1019,4644,76,75
18.24,1034,-12400,9892,8164,-2841,-3118,4739,76,75
18.26,1047,-11020,9976,8424,-2347,-4292,4922,76,75
18.28,1036,-9624,9640,8796,-2114,-3484,5157,76,75
18.30,1040,-8664,9080,9028,-2031,-1141,5621,76,75
18.32,1032,-7752,9180,9008,-2000,1751,6404,76,75
18.34,1041,-7348,9352,8912,-2208,4566,7446,76,75
18.36,1028,-8264,10192,9224,-2738,6399,8375,76,75
18.38,1024,-8340,10804,9452,-3251,7256,9300,76,75
18.40,1040,-7800,12020,9596,-3870,7925,10834,76,75
18.42,1028,-7056,14948,9292,-4526,9283,13504,76,75
18.44,1026,-6084,18560,8372,-4205,12434,16944,76,75
18.46,1050,-4844,21168,7480,-3838,18977,19946,76,75
18.48,1034,-4832,20928,6848,-4909,28905,21802,76,75
18.50,1043,-6328,17884,6168,-5842,32767,21616,76,75
18.52,1041,-8500,14872,6600,-5696,32767,19366,76,75
18.54,1042,-10892,12732,8340,-4844,32767,15879,76,75
18.56,1040,-13012,13816,10432,-3924,24461,12328,76,75
18.58,1033,-12680,17000,10392,-3341,9922,9048,76,75
18.60,1037,-10124,19852,9436,-3168,-1402,6835,76,75
18.62,1038,-6768,21488,7764,-3207,-6286,6100,76,75
18.64,1040,-5008,21364,6716,-3981,-3964,5864,76,75
18.66,1015,-3748,17712,6716,-4808,3665,7141,76,75
18.68,1029,-3348,15132,7292,-4615,13364,7277,76,75
18.70,1046,-4764,14332,7852,-4468,19986,6648,76,75
18.72,1031,-6408,12916,7932,-3768,22264,5379,76,75
18.74,1030,-7732,11764,7788,-3000,20005,4500,76,75
18.76,1028,-8820,11528,7300,-2401,14713,4175,76,75
18.78,1044,-8904,12164,6896,-1898,8888,4341,76,75
18.80,1028,-7556,12592,7312,-1586,5436,4783,76,75
18.82,1043,-6240,12704,7888,-1478,5404,5303,76,75
18.84,1040,-5836,13072,8624,-1479,7652,5707,76,75
18.86,1055,-6072,14196,8564,-1182,10027,5727,76,75
18.88,1042,-6708,15192,7980,-875,11324,5577,76,75
18.90,1038,-7120,15048,7616,-385,11397,5593,76,75
18.92,1031,-7684,14580,7616,379,10427,5820,76,75
18.94,1036,-8216,14532,8708,1194,8368,6497,76,75
18.96,1038,-8448,14196,9280,1918,6308,7061,76,75
18.98,1029,-8300,14112,9548,2646,4662,7482,76,75
19.00,1024,-8760,14564,10116,3122,2855,7704,76,75
19.02,1040,-9244,15112,10612,3394,355,7458,76,75
19.04,1041,-9084,15656,10972,3420,-2221,6708,76,75
19.06,1038,-8396,16008,11052,3347,-3820,5582,76,75
19.08,1031,-7852,16884,11048,3236,-4265,4575,76,75
19.10,1036,-8144,19112,11748,2871,-4418,3782,76,75
19.12,1036,-8704,21132,12964,1883,-5120,2990,76,75
19.14,1033,-8756,21544,13764,169,-5656,1567,76,75
19.16,1042,-7904,19724,13268,-1907,-5082,-1033,76,75
19.18,1051,-6596,17824,11992,-3744,-3939,-4568,76,75
19.20,1034,-5968,17356,11456,-5198,-3091,-8478,76,75
19.22,1044,-6064,19220,11596,-6513,-2903,-11895,76,75
19.24,1040,-5624,20776,12096,-7835,-2743,-14313,76,75
19.26,1032,-5100,21644,11632,-9734,-1457,-15840,76,75
19.28,1029,-5096,21496,10544,-11520,649,-16886,76,75
19.30,1030,-5508,20336,9848,-12873,2380,-17742,76,75
19.32,1042,-5636,19464,9048,-13402,3462,-18548,76,75
19.34,1051,-5384,18328,8840,-13655,4294,-19200,76,75
19.36,1039,-5380,17436,7876,-13246,4934,-19599,76,75
19.38,1036,-5288,16716,7920,-12637,5134,-19413,76,75
19.40,1045,-5148,16356,7244,-12014,5292,-18886,76,75
19.42,1042,-4884,15156,6580,-11270,5403,-17649,76,75
19.44,1030,-5112,13668,6016,-10422,5440,-15916,76,75
19.46,1028,-5432,12508,5868,-9225,4747,-13440,76,75
19.48,1030,-6164,12648,6748,-8266,2815,-10862,76,75
19.50,1048,-5988,12728,7236,-7382,928,-8541,76,75
19.52,1031,-5156,12464,7364,-6824,-104,-6704,76,75
19.54,1034,-4344,11980,7120,-6295,2,-4933,76,75
19.56,1043,-4112,12088,7020,-5839,239,-3066,76,75
19.58,1045,-4284,12668,7160,-5290,470,-636,76,75
19.60,1022,-4116,12404,7152,-4828,834,1995,76,75
19.62,1047,-4012,11556,7276,-4318,1944,5092,76,75
19.64,1035,-4464,10752,7728,-3896,2993,7928,76,75
19.66,1036,-4820,10828,8208,-3235,3275,10532,76,75
19.68,1024,-4564,12216,8208,-2380,3814,13526,76,75
19.70,1032,-4764,14704,8192,-2005,5191,17151,76,75
19.72,1028,-4740,15572,7600,-1696,7480,20863,76,75
19.74,1036,-4816,15876,7436,-1448,10839,24814,76,75
19.76,1039,-5852,16376,7612,-1615,13948,27738,76,75
19.78,1028,-7340,16280,8460,-1523,15226,28850,76,75
19.80,1044,-7792,16468,9580,-1081,14382,29040,76,75
19.82,1017,-7700,18336,10120,-895,12716,28725,76,75
19.84,1036,-7268,20256,9692,-1171,11455,27834,76,75
19.86,1027,-6448,21180,8564,-1259,10903,27103,76,75
19.88,1037,-5716,22616,7036,-1204,12650,26809,76,75
19.90,1040,-5356,23684,6324,-1587,17813,26693,76,75
19.92,1044,-5360,22336,6448,-2494,24969,25871,76,75
19.94,1039,-6740,20040,6488,-3131,31477,23902,76,75
19.96,1036,-8732,17652,6140,-3584,32767,21231,76,75
19.98,1047,-10024,15988,5512,-3506,32486,18205,76,75
20.00,1041,-11288,15096,5076,-2939,26017,15595,76,75
20.02,1042,-12036,15268,5060,-1796,17095,13842,76,75
20.04,1038,-11628,16412,5656,-722,8785,12712,76,75
20.06,1037,-10388,16048,6996,-110,4630,11562,76,75
20.08,1028,-8996,15028,7312,578,3973,10025,76,75
20.10,1038,-7592,14744,7192,1338,5906,8215,76,75
20.12,1046,-7428,14016,7148,1776,8689,6454,76,75
20.14,1025,-7908,13280,6820,2390,10481,5474,76,75
20.16,1032,-9096,13680,7200,3314,10428,5375,76,75
20.18,1028,-10840,14340,8484,3896,8545,5383,76,75
20.20,1025,-12052,14036,10016,4423,4867,4951,76,75
20.22,1057,-12172,14476,10524,4883,-216,3806,76,75
20.24,1031,-11476,14704,9948,5458,-4738,2112,76,75
20.26,1033,-10808,14292,10196,6199,-8554,425,76,75
20.28,1037,-10640,15144,11052,6682,-11425,-1366,76,75
20.30,1037,-10456,16696,12192,6866,-13413,-2827,76,75
20.32,1049,-10784,19636,14204,6128,-15542,-4054,76,75
20.34,1033,-11980,22300,15452,4257,-18654,-6065,76,75
20.36,1044,-10572,22580,13728,3175,-21587,-8395,76,75
20.38,1029,-7864,21544,11480,2103,-21683,-10590,76,75
20.40,1042,-6804,18264,10612,549,-20198,-13343,76,75
20.42,1037,-6880,17036,10748,-585,-21069,-15675,76,75
20.44,1041,-7036,18600,10896,-2047,-22784,-16901,76,75
20.46,1034,-7484,20088,10688,-3878,-24919,-17589,76,75
20.48,1037,-7976,22092,10124,-5783,-28137,-17219,76,75
20.50,1035,-7236,24368,9120,-7738,-29810,-16302,76,75
20.52,1046,-4668,24124,7624,-10339,-27085,-15345,76,75
20.54,1038,-3648,22788,6456,-12755,-20964,-14445,76,75
20.56,1035,-3908,22112,6432,-14034,-13775,-13862,76,75
20.58,1038,-4300,22020,6528,-14740,-6937,-13768,76,75
20.60,1044,-4752,21024,6852,-15536,-447,-14173,76,75
20.62,1028,-5640,20052,6772,-16002,4728,-15397,76,75
20.64,1039,-6244,18572,5440,-15956,7927,-17325,76,75
20.66,1038,-5604,16596,4020,-15000,9565,-19627,76,75
20.68,1032,-5944,15368,2980,-13458,9828,-21422,76,75
20.70,1034,-6880,14628,2712,-11454,7953,-22134,76,75
20.72,1040,-6864,14408,3108,-9339,5208,-21594,76,75
20.74,1034,-6256,14092,3660,-7726,3513,-20253,76,75
20.76,1042,-5908,13396,4176,-6459,3372,-18436,76,75
20.78,1044,-5464,12756,4844,-5253,4500,-16800,76,75
20.80,1041,-4880,11704,4548,-4123,6236,-15272,76,75
20.82,1024,-4628,10624,4252,-2543,7940,-13678,76,75
20.84,1028,-5296,10556,4580,-669,8981,-11622,76,75
20.86,1049,-6276,10356,5336,1105,8528,-9044,76,75
20.88,1035,-6816,9648,6876,2582,7128,-6238,76,75
20.90,1037,-7644,9672,8556,3786,5637,-2851,76,75
20.92,1032,-8812,11516,10088,4021,4821,1075,76,75
20.94,1035,-9432,11680,10216,4240,5202,4602,76,75
20.96,1038,-9988,11016,10604,4885,6803,7840,76,75
20.98,1027,-11892,8700,12228,4925,9738,9269,76,75
21.00,1037,-14848,7016,14488,5072,10436,9199,76,75
21.02,1042,-17952,8392,15528,5303,6922,8208,76,75
21.04,1030,-19580,9716,15172,5380,968,6964,76,75
21.06,1033,-18684,10188,15040,5407,-2222,6277,76,75
21.08,1038,-17372,9576,14948,4363,-529,5577,76,75
21.10,1040,-17940,8176,14620,3413,1909,4063,76,75
21.12,1045,-18492,5748,13860,3304,1848,1955,76,75
21.14,1030,-18120,3572,13464,3682,-394,-18,76,75
21.16,1038,-17604,1696,13112,4414,-3153,-2172,72,67
21.18,1034,-16664,268,12224,4969,-6557,-3990,72,67
21.20,1041,-16292,-48,11596,5312,-9214,-5097,72,67
21.22,1029,-16212,340,10812,5554,-10656,-5891,72,67
21.24,1044,-16488,1400,10888,5736,-11920,-6626,72,67
21.26,1040,-17224,3016,11524,5926,-13137,-7143,72,67
21.28,1034,-17480,4372,11512,5907,-13328,-7795,72,67
21.30,1029,-17728,4296,11956,5534,-13759,-8423,72,67
21.32,1038,-16996,3680,13328,5323,-14043,-9112,72,67
21.34,1034,-16308,3748,13340,4825,-13606,-10191,72,67
21.36,1034,-16640,4172,12628,4134,-12098,-11832,72,67
21.38,1030,-17420,5092,14332,3524,-10241,-11797,72,67
21.40,1039,-17412,7004,15492,2040,-8125,-11466,72,67
21.42,1040,-16168,6756,14240,292,-5581,-11163,72,67
21.44,1040,-14172,6316,12432,-961,-1431,-10873,72,67
21.46,1025,-15572,7636,11016,-2313,1256,-10234,72,67
21.48,1025,-18584,12096,10816,-2620,-1338,-7221,72,67
21.50,1043,-16696,14996,9332,-1226,-5006,-2969,72,67
21.52,1043,-14148,17328,10048,-801,-3810,1303,72,67
21.54,1038,-14100,14992,10788,-1735,-1008,1754,72,67
21.56,1046,-11788,11252,10144,-1813,645,1998,72,67
21.58,1032,-8976,9956,9076,-2318,5297,1220,72,67
21.60,1034,-8656,10280,9524,-2321,13381,541,72,67
21.62,1030,-12252,11324,9868,-3368,19157,-347,72,67
21.64,1039,-12844,11296,6936,-3600,16613,-1140,72,67
21.66,1023,-12120,9724,5656,-2002,9105,-1940,72,67
21.68,1026,-11392,10192,4968,-20,2006,-3541,72,67
21.70,1030,-11332,11908,4600,1514,-4155,-4324,72,67
21.72,1040,-9760,12368,3948,2288,-6429,-4193,72,67
21.74,1027,-9288,13108,4376,2525,-1731,-5538,72,67
21.76,1025,-9940,12796,4936,3069,4216,-6801,72,67
21.78,1040,-11220,12396,3036,2840,7072,-8046,72,67
21.80,1043,-10888,10828,4244,5155,7967,-8021,72,67
21.82,1041,-10664,11268,5736,4932,6345,-7835,72,67
21.84,1036,-14912,11256,8076,4810,-816,-8152,72,67
21.86,1037,-10408,7772,12492,6133,-6584,-5192,72,67
21.88,1024,-10476,5016,11152,3898,1550,-3527,72,67
21.90,1029,-22644,2364,9600,3161,7241,-5361,72,67
21.92,1036,-28108,1208,7776,4140,283,-6499,72,67
21.94,1024,-17468,2680,7880,6263,-5118,-6291,72,67
21.96,1032,-11216,3444,7276,6119,-1286,-5824,72,67
21.98,1046,-13308,5092,5092,6866,-897,-5061,72,67
22.00,1032,-13160,6872,4596,7119,-620,-4518,72,67
22.02,1026,-14260,5788,7124,6215,1665,-4505,72,67
22.04,1021,-16496,1684,6952,5900,2230,-4352,72,67
22.06,1036,-17284,2400,5752,6629,2384,-4499,72,67
22.08,1042,-15428,3808,5408,7237,2498,-4641,72,67
22.10,1027,-14356,1184,6300,7453,2334,-4011,72,67
22.12,1028,-13852,868,6772,7614,2962,-3189,72,67
22.14,1040,-14568,1732,7144,7752,3931,-2582,72,67
22.16,1039,-16568,2512,7072,8082,2285,-2189,72,67
22.18,1029,-16456,2592,8092,8880,-718,-1708,72,67
22.20,1038,-13724,1884,8816,9008,-1181,-1076,72,67
22.22,1032,-13132,1704,8704,8614,683,-468,72,67
22.24,1032,-13896,1608,9508,8197,1534,483,72,67
22.26,1024,-14140,1628,9500,7183,628,1538,72,67
22.28,1037,-13372,1904,9500,6217,-1733,2862,72,67
22.30,1034,-11884,1936,9308,5042,-4653,4704,72,67
22.32,1048,-8540,2280,9904,4194,-7066,7999,72,67
22.34,1047,-7696,2448,9572,3473,-6800,11760,72,67
22.36,1026,-9560,3740,11412,2721,-4808,15171,72,67
22.38,1028,-10796,4608,11272,2365,-814,18854,72,67
22.40,1035,-11772,6024,11356,2586,6205,20654,72,67
22.42,1029,-15000,8700,10192,1300,13646,20535,72,67
22.44,1048,-21984,10948,8896,-360,11321,19240,72,67
22.46,1041,-26188,8900,9772,196,5660,16420,72,67
22.48,1041,-23020,6832,11316,1962,1824,13143,72,67
22.50,1033,-19928,5584,11416,1956,4512,10900,72,67
22.52,1044,-19560,4936,10044,1550,7002,9976,72,67
22.54,1026,-22576,4564,9376,1219,5396,8692,72,67
22.56,1039,-22776,4096,9156,2577,-802,7054,72,67
22.58,1040,-19744,4720,10172,3454,-5608,5431,72,67
22.60,1041,-17500,5204,9584,3388,-4973,3233,72,67
22.62,1028,-16892,5384,9172,3215,-2831,2235,72,67
22.64,1036,-17112,5512,8496,3192,-1983,1610,72,67
22.66,1040,-16876,5788,7852,3395,-2375,1145,72,67
22.68,1044,-16300,6208,7908,3743,-3216,645,72,67
22.70,1030,-15680,6240,8292,3943,-4083,-79,72,67
22.72,1032,-15256,6144,8120,4250,-4730,-713,72,67
22.74,1030,-14768,6280,7876,4609,-4800,-806,72,67
22.76,1042,-14800,6460,7816,4899,-4424,-778,72,67
22.78,1039,-15016,6440,7936,5135,-4289,-575,72,67
22.80,1040,-15020,6420,7684,5365,-4637,-262,72,67
22.82,1040,-15016,6656,7676,5609,-5329,-82,72,67
22.84,1025,-15096,7072,7572,5861,-6117,-138,72,67
22.86,1030,-14844,7264,7632,6108,-6679,-119,72,67
22.88,1044,-14200,7452,7412,6276,-6778,-41,72,67
22.90,1033,-13792,7628,7576,6243,-6560,259,72,67
22.92,1043,-13772,7808,7748,6119,-6698,613,72,67
22.94,1046,-13716,8372,7580,5957,-6902,1211,72,67
22.96,1029,-13724,9096,7548,5659,-7030,2123,72,67
22.98,1014,-14132,10388,7564,5228,-7123,3054,72,67
23.00,1024,-14188,11264,7480,4753,-7655,4113,72,67
23.02,1052,-13740,12168,7672,4260,-8807,5331,72,67
23.04,1032,-12860,12432,7848,3779,-9886,6049,72,67
23.06,1018,-11384,11652,8088,3487,-10628,6295,72,67
23.08,1035,-9852,10804,8052,3483,-10477,6087,72,67
23.10,1028,-8612,10608,8104,3483,-9747,5684,72,67
23.12,1039,-8060,11096,8712,3473,-9256,5352,72,67
23.14,1038,-7524,12712,8900,3346,-9386,5604,72,67
23.16,1039,-6556,14344,8768,2899,-9173,6481,72,67
23.18,1026,-5512,15580,8700,2132,-7363,7634,72,67
23.20,1043,-5000,16436,8876,907,-4152,9025,72,67
23.22,1033,-4936,16840,8772,57,-458,10393,72,67
23.24,1039,-5108,16788,8616,-667,2573,11445,72,67
23.26,1035,-5544,15768,8592,-1077,4529,11904,72,67
23.28,1028,-5768,15276,8312,-1015,5154,11897,72,67
23.30,1042,-6092,15316,8600,-898,5007,11304,72,67
23.32,1044,-6212,15136,8568,-771,4409,10104,72,67
23.34,1043,-6060,15100,8820,-695,3261,8789,72,67
23.36,1020,-5952,15888,8944,-724,2193,7730,72,67
23.38,1040,-5744,16144,8548,-788,1955,6647,72,67
23.40,1022,-5188,16604,8488,-852,2300,5804,72,67
23.42,1038,-4416,17004,8840,-1139,3802,5037,72,67
23.44,1030,-4200,16552,8960,-1583,6456,4052,72,67
23.46,1040,-4536,15768,8524,-1674,8522,3250,72,67
23.48,1029,-4800,15560,8520,-1165,9507,2926,72,67
23.50,1033,-5400,15136,8588,-615,9604,2597,72,67
23.52,1034,-5984,14556,8780,-49,8337,2442,72,67
23.54,1026,-6200,14368,9076,437,6183,2500,72,67
23.56,1027,-5928,14500,9372,756,4365,2646,72,67
23.58,1026,-5376,14512,9468,942,3462,2947,72,67
23.60,1040,-4988,14500,9512,1041,3704,3381,72,67
23.62,1030,-5092,14588,9472,1283,4582,3976,72,67
23.64,1032,-5300,15104,9476,1613,5805,4712,72,67
23.66,1026,-5532,15184,9444,2051,6659,5505,72,67
23.68,1036,-6248,15288,9468,2718,6744,6388,72,67
23.70,1034,-6756,17392,10236,3500,5793,7675,72,67
23.72,1040,-7360,19852,10908,3839,4005,9160,72,67
23.74,1040,-7728,21864,11728,3587,2050,10382,72,67
23.76,1028,-7596,21740,12280,2469,869,10511,72,67
23.78,1032,-7680,19732,12100,594,397,9033,72,67
23.80,1036,-7488,17512,11416,-993,-553,6469,72,67
23.82,1040,-6432,16488,10416,-2275,-1655,3499,72,67
23.84,1036,-5356,16904,9896,-3558,-1788,676,72,67
23.86,1035,-4684,18140,9420,-5262,76,-1648,72,67
23.88,1033,-4208,18464,9096,-7091,3689,-3225,72,67
23.90,1035,-4776,17312,8348,-8809,7601,-4622,72,67
23.92,1026,-5512,16120,7852,-9385,9867,-5828,72,67
23.94,1044,-6016,16704,8328,-9909,10465,-7214,72,67
23.96,1023,-5480,16652,8108,-10285,11427,-8443,72,67
23.98,1038,-5956,14328,6324,-10024,13450,-10162,72,67
24.00,1045,-6540,13396,6356,-9191,12032,-10594,72,67
24.02,1034,-7096,13388,6828,-8557,9066,-10571,72,67
24.04,1028,-6772,14092,7104,-8203,6216,-10108,72,67
24.06,1019,-5756,13724,6444,-8050,5081,-9437,72,67
24.08,1040,-5096,12712,6328,-7900,5552,-8662,72,67
24.10,1032,-5116,11912,6188,-7493,6436,-7984,72,67
24.12,1045,-5176,11856,6556,-7095,6754,-7183,72,67
24.14,1052,-5156,11844,6840,-6813,6777,-6051,56,56
24.16,1028,-5360,12180,6532,-6678,6575,-4939,56,56
24.18,1037,-5676,12156,6392,-6456,6246,-3597,56,56
24.20,1027,-6280,12304,6640,-5994,6050,-2251,56,56
24.22,1026,-6640,12632,7220,-5634,5702,-564,56,56
24.24,1042,-6972,12976,7636,-5252,5450,1465,56,56
24.26,1036,-7352,12952,8068,-4985,5400,3459,56,56
24.28,1028,-8004,12608,8368,-4805,5090,5341,56,56
24.30,1041,-9116,12072,8868,-4397,3874,6758,56,56
24.32,1017,-9120,11672,9396,-3619,3029,7811,56,56
24.34,1030,-9684,13792,9960,-2911,2294,10147,56,56
24.36,1038,-10784,16600,10152,-1655,1262,13483,56,56
24.38,1023,-11144,17784,11088,-63,1884,16295,56,56
24.40,1032,-10240,17056,11704,296,6185,17718,56,56
24.42,1002,-9428,16656,12380,56,11582,17127,56,56
24.44,1031,-9488,16900,13048,-206,14838,15125,56,56
24.46,1027,-10952,16528,13324,-1120,14811,12373,56,56
24.48,1038,-10724,14052,11876,-1356,7384,6430,56,56
24.50,1029,-8176,12196,12628,-1202,5927,4274,56,56
24.52,1048,-6536,9552,12540,-2121,7138,3163,56,56
24.54,1033,-7332,7780,11452,-2602,9440,3046,56,56
24.56,1035,-7828,7900,11328,-2362,8402,3487,56,56
24.58,1028,-8432,8436,11272,-1765,6421,3979,56,56
24.60,1026,-8060,9356,10824,-757,4466,4442,56,56
24.62,1027,-7384,10324,10632,168,3722,4848,56,56
24.64,1039,-7072,11428,10620,947,4079,5290,56,56
24.66,1037,-7764,12792,11000,1818,4200,5776,56,56
24.68,1034,-8052,12832,10532,2789,3396,6163,56,56
24.70,1035,-7928,12660,10680,3682,2322,6237,56,56
24.72,1036,-7880,12972,11324,4208,1333,6059,56,56
24.74,1026,-7940,14312,11968,4585,329,6035,56,56
24.76,1027,-7732,15960,12228,4536,-351,6255,56,56
24.78,1036,-7972,17592,12252,3841,-1021,6084,56,56
24.80,1020,-8908,19460,12376,2915,-2202,5147,56,56
24.82,1024,-8832,23316,12808,2169,-3801,4110,56,56
24.84,1036,-7816,26572,13704,1091,-3921,2950,56,56
24.86,1023,-6356,26152,13948,-909,-1220,979,56,56
24.88,1034,-5752,21788,13164,-3446,2294,-2742,56,56
24.90,1044,-6228,19112,12576,-5581,3765,-7661,56,56
24.92,1037,-7564,20568,12192,-7139,2207,-11491,56,56
24.94,1038,-6860,21408,11288,-7975,-169,-14032,56,56
24.96,1030,-5336,21620,10160,-9120,-778,-15331,56,56
24.98,1029,-4480,21536,9432,-10299,698,-16022,56,56
25.00,1034,-3684,20908,8828,-10935,3765,-16309,56,56
25.02,1034,-3320,20056,8208,-11425,7585,-16463,56,56
25.04,1043,-3808,18160,7552,-11547,10776,-16674,56,56
25.06,1036,-4360,16064,7144,-10984,12074,-16949,56,56
25.08,1042,-5004,14792,6844,-9987,11480,-17023,56,56
25.10,1035,-5540,14628,7280,-9008,8564,-16440,56,56
25.12,1043,-6136,14508,7844,-8854,3935,-15413,56,56
25.14,1039,-5728,13620,7692,-8873,-517,-14207,56,56
25.16,1041,-4524,13112,7216,-9254,-2791,-12695,56,56
25.18,1020,-3800,12764,6744,-9538,-2840,-10946,56,56
25.20,1046,-3440,12796,7084,-9876,-2011,-8900,56,56
25.22,1037,-2856,12184,7316,-10380,-39,-6872,56,56
25.24,1037,-2420,11252,6836,-10707,3559,-4425,56,56
25.26,1038,-2876,10188,6384,-10954,7955,-1722,56,56
25.28,1034,-4320,9624,6448,-11051,11403,1106,56,56
25.30,1046,-5424,9336,6360,-11399,12963,3925,56,56
25.32,1040,-6676,9204,6224,-11936,13019,6349,56,56
25.34,1042,-7592,8968,5712,-12217,12613,8826,56,56
25.36,1034,-8744,11108,5716,-11961,11669,12772,56,56
25.38,1044,-10032,14904,5868,-11742,11247,16716,56,56
25.40,1024,-9840,15640,5276,-11159,12789,20317,56,56
25.42,1036,-9928,14216,4928,-11126,17376,22329,56,56
25.44,1036,-13152,13992,6696,-9908,18638,21764,56,56
25.46,1029,-12288,14696,7480,-9073,12224,21743,56,56
25.48,1035,-12508,16032,6156,-8745,7830,21849,56,56
25.50,1035,-12796,17156,5300,-8081,5584,21394,56,56
25.52,1036,-11456,17200,5080,-7552,5085,21627,56,56
25.54,1038,-9216,16804,5172,-7257,8045,21794,56,56
25.56,1040,-7696,16136,4644,-7556,14163,21365,56,56
25.58,1032,-8568,14720,4068,-7799,19690,20706,56,56
25.60,1042,-10028,14160,3708,-7126,22049,20853,56,56
25.62,1027,-11516,14760,3520,-6731,22130,21964,56,56
25.64,1030,-13684,14488,3104,-6321,20762,22763,56,56
25.66,1033,-14812,13940,3132,-5154,17517,23285,56,56
25.68,1035,-14884,15136,4100,-3173,12755,23316,56,56
25.70,1040,-14472,16332,5716,-2182,8462,22534,56,56
25.72,1045,-14312,15748,5924,-1348,4803,21226,56,56
25.74,1027,-13920,15388,5216,-33,2531,19857,56,56
25.76,1016,-13800,15168,5468,1358,2060,18346,56,56
25.78,1036,-14280,13832,7032,2503,2259,16546,56,56
25.80,1033,-15500,14004,8848,4042,72,14500,56,56
25.82,1025,-17268,16332,9140,5523,-4840,12022,56,56
25.84,1044,-18788,19568,9648,6486,-13255,10142,56,56
25.86,1033,-20584,22076,11040,6114,-25029,7452,56,56
25.88,1035,-18968,21604,11224,4818,-32768,2896,56,56
25.90,1027,-12372,18280,9796,2962,-32768,-3602,56,56
25.92,1041,-7068,18412,10100,-493,-32768,-9984,56,56
25.94,1036,-6724,22092,9848,-4032,-26842,-15028,56,56
25.96,1036,-5164,23900,8808,-5924,-18841,-18175,56,56
25.98,1030,-3172,24408,8044,-8802,-9425,-20418,56,56
26.00,1038,-4040,22692,7016,-10829,-5,-22375,56,56
26.02,1031,-5920,20496,6360,-11076,4196,-23887,56,56
26.04,1026,-7200,19100,6668,-10616,3960,-25153,56,56
26.06,1040,-7888,19156,7284,-10334,1073,-26130,56,56
26.08,1024,-7708,20296,6284,-10279,-1958,-27055,56,56
26.10,1038,-7176,20392,4520,-10541,-4549,-28025,56,56
26.12,1042,-6932,19880,3560,-10902,-6541,-28428,56,56
26.14,1034,-7096,19164,3544,-11029,-7629,-28051,56,56
26.16,1037,-7084,18084,4768,-11959,-6369,-25408,56,56
26.18,1032,-7336,19344,5156,-12273,-5596,-23736,56,56
26.20,1041,-6140,18592,4488,-12481,-3943,-22191,56,56
26.22,1039,-5660,16444,4328,-12356,-1301,-20842,56,56
26.24,1037,-6840,15184,4760,-11433,593,-19516,56,56
26.26,1034,-7992,14468,4628,-9903,554,-18042,56,56
26.28,1040,-7488,13488,5188,-8369,-621,-16348,56,56
26.30,1044,-6200,12476,5652,-7101,-1203,-13981,56,56
26.32,1023,-6036,13352,5924,-5690,-159,-10677,56,56
26.34,1044,-6000,14044,5696,-4829,3785,-7630,56,56
26.36,1026,-5316,11124,5744,-3754,8923,-4757,56,56
26.38,1045,-5488,7104,6828,-1574,14308,-2424,56,56
26.40,1024,-8460,4988,8572,981,17967,-844,56,56
26.42,1044,-13940,5720,9876,3277,15158,924,56,56
26.44,1031,-16764,8180,11040,5488,6087,3299,56,56
26.46,1037,-15780,8372,12712,6277,-583,4702,56,56
26.48,1033,-14872,7656,14056,5779,-2495,5369,56,56
26.50,1028,-15148,6840,14624,4966,-2245,5336,56,56
26.52,1032,-14152,4308,14752,4713,-386,3979,56,56
26.54,1037,-13788,3512,14596,5059,1393,3283,56,56
26.56,1030,-13888,2460,15204,4881,2157,2503,56,56
26.58,1035,-14992,1392,15556,4656,1161,1388,56,56
26.60,1029,-15680,908,14880,4735,-845,316,56,56
26.62,1024,-15244,1044,13492,5094,-1773,-626,56,56
26.64,1031,-14988,1080,12912,5188,-1066,-1685,56,56
26.66,1042,-15940,1152,12820,5714,-606,-3133,56,56
26.68,1032,-16464,1456,12500,6329,-1862,-4535,56,56
26.70,1041,-16180,1624,11860,6869,-3075,-6007,56,56
26.72,1025,-16004,2000,10632,7186,-2995,-7238,56,56
26.74,1025,-16208,2396,9408,7346,-2110,-7690,56,56
26.76,1027,-15668,2832,8780,7583,-1884,-7452,56,56
26.78,1050,-15456,3056,8328,8099,-1387,-7180,56,56
26.80,1034,-15560,3508,8176,8606,-215,-6381,56,56
26.82,1038,-17952,4316,7984,8715,529,-5315,56,56
26.84,1026,-20552,5752,7284,8746,-1170,-4380,56,56
26.86,1021,-18660,6844,7120,8934,-5037,-2979,56,56
26.88,1028,-15080,6772,7212,8644,-7235,-2802,56,56
26.90,1038,-14652,6928,7624,8305,-6965,-3735,56,56
26.92,1036,-15596,8044,7400,8064,-6120,-4214,56,56
26.94,1038,-14972,9224,7328,7721,-5480,-3777,56,56
26.96,1025,-13620,9888,6960,6713,-4797,-2647,56,56
26.98,1033,-12432,10388,7136,4164,-3761,-580,56,56
27.00,1039,-12252,10344,7632,3060,-3436,323,56,49
27.02,1021,-11212,11044,8400,2190,-1165,1414,56,49
27.04,1036,-11908,11204,8272,930,3413,630,56,49
27.06,1026,-13332,10268,7396,783,4673,123,56,49
27.08,1037,-13404,9240,7244,1039,3261,-79,56,49
27.10,1044,-11672,8964,7468,1525,4280,-357,56,49
27.12,1018,-11676,7832,7280,1634,7935,-869,56,49
27.14,1027,-13500,6692,7168,1875,9698,-836,56,49
27.16,1042,-14832,6712,6976,1950,8431,-218,56,49
27.18,1028,-15164,6772,6164,1733,6375,222,56,49
27.20,1022,-14932,6224,5900,1529,4777,628,56,49
27.22,1032,-15648,6548,5800,1574,2220,861,56,49
27.24,1030,-16748,7624,6436,1189,-1142,1087,56,49
27.26,1028,-16356,7980,7136,867,-3524,1442,56,49
27.28,1030,-14960,7600,7536,576,-4418,1571,56,49
27.30,1023,-16240,6684,9928,-27,-17571,2886,56,49
27.32,1030,-13060,6744,9612,-492,-27497,3060,56,49
27.34,1043,-10780,6276,11740,-1440,-29612,3951,56,49
27.36,1034,-8128,6660,14796,-2087,-25961,4161,56,49
27.38,1025,-6548,7556,17772,-2599,-12601,3401,56,49
27.40,1030,-8072,7904,16400,-3340,4656,3083,56,49
27.42,1038,-10692,7080,14072,-3818,14050,3768,56,49
27.44,1040,-11568,6828,11872,-2288,18256,3022,56,49
27.46,1046,-9904,7440,11608,-1364,24719,802,56,49
27.48,1023,-16608,6784,7156,-813,31455,-2426,56,49
27.50,1039,-20604,5188,6508,-888,25887,-2299,56,49
27.52,1041,-21512,6232,5976,-551,15222,-1158,56,49
27.54,1013,-18724,6592,6896,-478,6828,-638,56,49
27.56,1028,-16536,5520,7644,-635,2131,-1134,56,49
27.58,1042,-13816,5584,7976,199,2970,-1540,56,49
27.60,1034,-16976,5588,8216,794,1917,-1578,56,49
27.62,1044,-20092,6940,10036,-131,770,-1927,56,49
27.64,1024,-16428,4788,8780,897,-980,-2356,56,49
27.66,1042,-17036,4168,9992,-671,699,-4963,56,49
27.68,1032,-13776,3428,11376,-1257,2376,-3857,56,49
27.70,1041,-15288,1932,8908,-4191,5526,-6018,56,49
27.72,1035,-7584,6724,6636,-7,4112,-2030,56,49
27.74,1025,-9536,6832,5504,-858,9120,-803,56,49
27.76,1027,-14188,6724,4284,559,8262,98,56,49
27.78,1038,-15912,7536,5240,1100,3723,656,56,49
27.80,1028,-20072,10188,8932,-1349,3188,-2561,56,49
27.82,1036,-19036,5712,8080,-2671,4514,-2127,56,49
27.84,1040,-15100,3116,6328,-2411,8652,-3575,56,49
27.86,1041,-20596,572,1812,-270,7724,-3274,56,49
27.88,1025,-19800,2676,3908,1381,4229,-3378,56,49
27.90,1042,-16972,3248,5860,1340,4776,-3764,56,49
27.92,1037,-16272,2068,5572,606,7246,-4167,56,49
27.94,1046,-16456,1408,4136,-13,8033,-4350,56,49
27.96,1037,-16460,828,2184,525,125,-1743,56,49
27.98,1039,-14096,9580,3664,1869,-10196,-753,56,49
28.00,1042,-17576,9720,5376,280,-18443,-370,56,49
28.02,1039,-20436,9648,5356,-1980,-31983,-10,56,49
28.04,1046,-19980,9324,5260,-4950,-32768,-940,56,49
28.06,1042,-14716,10252,5988,-7252,-32768,-1302,56,49
28.08,995,-7908,9768,8652,-9644,-29887,-490,56,49
28.10,1029,-5236,8888,8448,-10252,-15407,679,56,49
28.12,1030,-4388,9128,7252,-9484,-1856,2897,56,49
28.14,1045,-7228,8728,5600,-9547,8802,4305,56,49
28.16,1026,-12224,7880,4328,-8650,11088,6066,56,49
28.18,1028,-14508,5764,3952,-7106,7674,8682,56,49
28.20,1039,-14116,4064,4528,-5657,5701,10922,56,49
28.22,1043,-14756,3856,4676,-4251,8394,12396,56,49
28.24,1024,-16632,2812,3604,-2827,15244,12935,56,49
28.26,1024,-17792,780,3228,-775,20429,13362,56,49
28.28,1038,-19580,636,2328,2304,21056,12667,56,49
28.30,1034,-21640,1904,3360,4223,18977,10666,56,49
28.32,1028,-20300,1056,3612,5496,17101,9057,56,49
28.34,1034,-17648,136,3988,5798,17786,8099,56,49
28.36,1042,-17488,796,4648,5531,19332,6498,56,49
28.38,1045,-17072,1740,5444,892,18352,1837,56,49
28.40,1027,-18276,2852,4812,-134,19281,835,56,49
28.42,1030,-19572,4764,3952,-971,18207,65,56,49
28.44,1036,-18652,6144,2052,-956,14950,-369,56,49
28.46,1039,-17752,7048,720,-679,10763,-656,56,49
28.48,1041,-19956,7360,1764,-791,4867,-1137,56,49
28.50,1018,-16696,8636,3292,155,-147,-1171,56,49
28.52,1050,-16268,8136,1468,-95,306,-1838,56,49
28.54,1028,-15264,6884,1196,669,60,-1385,56,49
28.56,1044,-15148,7256,1732,523,761,-1322,56,49
28.58,1026,-19192,7568,1392,124,-5271,-1038,56,49
28.60,1026,-19268,6888,416,582,-11803,-1437,56,49
28.62,1024,-17468,7284,-756,1519,-15647,-2415,56,49
28.64,1035,-19696,8324,28,1066,-18430,-3672,56,49
28.66,1036,-19912,8140,1244,678,-23360,-4179,56,49
28.68,1042,-17624,7252,1928,653,-27021,-4867,56,49
28.70,1033,-15336,6660,2572,222,-27328,-4932,56,49
28.72,1035,-13216,6180,2748,643,-24709,-4915,56,49
28.74,1043,-13220,6380,4132,485,-20340,-4914,56,49
28.76,1034,-14228,6232,5300,-239,-16415,-4880,56,49
28.78,1039,-15020,5192,6496,-584,-14773,-4458,56,49
28.80,1026,-13408,4540,6444,-92,-13070,-3430,56,49
28.82,1042,-12188,4996,6504,-278,-8969,-2950,56,49
28.84,1026,-13656,5012,6584,-478,-5395,-2599,56,49
28.86,1025,-15504,4516,6844,-364,-4608,-2372,56,49
28.88,1040,-16020,4728,7192,-98,-4821,-2388,56,49
28.90,1035,-16052,4528,7264,201,-5350,-2155,56,49
28.92,1032,-15648,4768,7740,313,-5048,-1762,56,49
28.94,1039,-15124,4852,8784,442,-2232,-1561,56,49
28.96,1036,-15696,4812,9456,275,-2,-1386,56,49
28.98,1034,-15836,4652,8912,344,1229,-1354,56,49
29.00,1032,-15724,4656,9000,309,1468,-1430,56,49
29.02,1019,-16208,4728,8884,-46,987,-1632,56,49
29.04,1035,-17264,4712,9252,-282,-957,-1673,56,49
29.06,1028,-16276,4440,9204,-337,-3332,-1639,56,49
29.08,1042,-15152,4232,9300,-378,-3402,-1670,56,49
29.10,1027,-14624,4264,9512,-482,-2000,-1643,56,49
29.12,1045,-14752,4196,9604,-633,-737,-1480,56,49
29.14,1031,-15468,3736,9644,-707,-759,-1344,56,49
29.16,1026,-15700,3456,9744,-729,-1820,-1162,56,49
29.18,1026,-15452,3444,10156,-627,-2682,-930,56,49
29.20,1039,-13844,3668,9568,-258,-1366,-864,56,49
29.22,1032,-14072,3632,9364,-486,1216,-855,56,49
29.24,1026,-15524,2992,9844,-739,1503,-504,56,49
29.26,1037,-16176,2808,9752,-491,-799,-413,56,49
29.28,1028,-14948,3056,9784,-364,-2318,-164,56,49
29.30,1040,-13420,2992,9472,-209,-1580,-19,56,49
29.32,1038,-15172,2620,9692,-300,61,111,56,49
29.34,1041,-15444,2828,9116,60,-974,-72,56,49
29.36,1039,-15256,2560,9060,397,-1540,-230,56,49
29.38,1023,-14884,2448,9232,562,-1153,-182,56,49
29.40,1034,-14872,2936,9508,676,-94,-222,56,49
29.42,1026,-15728,2888,9860,612,311,-317,56,49
29.44,1046,-15940,3000,9648,786,-452,-457,56,49
29.46,1030,-16120,3012,9760,659,-1197,-666,56,49
29.48,1013,-15628,2996,9844,772,-1549,-675,56,49
29.50,1017,-14860,3352,9764,733,-985,-747,56,49
29.52,1028,-15632,3220,9716,186,-771,-446,56,49
29.54,1038,-16124,3452,9836,51,-1641,-327,56,49
29.56,1028,-16004,3296,9788,90,-2255,-370,56,49
29.58,1038,-15272,3284,9740,71,-1684,-483,56,49
29.60,1032,-15268,3112,9948,-79,-787,-378,56,49
29.62,1025,-15532,2808,10136,-123,-935,-339,56,49
29.64,1048,-15768,2736,10504,-224,-1487,-133,56,49
29.66,1025,-15800,2884,10640,-376,-2434,4,56,49
29.68,1034,-15604,2836,10588,-661,-3344,79,56,49
29.70,1027,-14732,2744,10420,-549,-4188,-384,56,49
29.72,1028,-13944,2896,10040,-113,-3478,-812,56,49
29.74,1038,-13504,2480,9604,931,-1656,-946,63,38
29.76,1033,-14016,2580,9560,1457,-1362,-1038,63,38
29.78,1026,-14892,2396,9752,1630,-1106,-1039,63,38
29.80,1038,-15404,2124,9904,1688,-1191,-908,63,38
29.82,1037,-15664,2056,10444,1615,-1248,-662,63,38
29.84,1042,-15752,2512,10804,1450,-1556,-437,63,38
29.86,1021,-16512,5680,7776,-960,-4612,5377,56,82
29.88,1018,-14272,6492,7184,-1644,-4609,5540,56,82
29.90,1028,-16480,9836,5864,-1370,4961,3409,56,82
29.92,1020,-17856,11164,6696,-2708,14304,2901,56,82
29.94,1025,-21688,12268,7480,-3009,10763,1483,56,82
29.96,1028,-20868,11456,7012,-2325,3025,-126,56,82
29.98,1025,-17752,10180,6152,-1778,397,-1495,56,82
30.00,1022,-17964,9448,5736,-710,2758,-3170,56,82
30.02,1032,-18624,9508,5816,-297,5552,-4476,56,82
30.04,1034,-21460,10208,5888,1223,2615,-6948,56,82
30.06,1039,-22680,10208,5808,3162,-2132,-10146,56,82
30.08,1022,-22304,9512,5200,5154,-5092,-12889,56,82
30.10,1018,-21116,9320,6464,6409,-6462,-14837,56,82
30.12,1036,-19372,7244,8192,6854,-8973,-15886,56,82
30.14,1034,-17768,5664,8728,6810,-11214,-16696,56,82
30.16,1021,-17196,3896,8208,6320,-11566,-17134,56,82
30.18,1019,-15872,1976,7708,6668,-9850,-17115,56,82
30.20,1032,-15188,84,7836,7585,-7695,-16055,56,82
30.22,1016,-13752,-1956,6936,9489,-6686,-15019,56,82
30.24,1038,-12652,-3060,5940,11698,-5274,-13867,56,82
30.26,1029,-11964,-4196,5192,14421,-4659,-12522,56,82
30.28,1024,-10292,-4768,5112,17236,-4374,-10849,56,82
30.30,1033,-9320,-4816,4976,19973,-2165,-9134,56,82
30.32,1037,-10128,-4804,4980,22375,1127,-7623,56,82
30.34,1039,-10316,-3936,6124,24597,4376,-6486,56,82
30.36,1026,-11012,-3148,7888,25724,6804,-5205,56,82
30.38,1032,-12592,-2588,7872,26083,6163,-4460,56,82
30.40,1021,-12628,-2776,7572,26856,5141,-4363,56,82
30.42,1034,-12420,-1904,8632,27016,4983,-4159,56,82
30.44,1034,-13784,-1436,9472,27018,5764,-4497,56,82
30.46,1032,-15916,-664,10280,26635,7018,-5090,56,82
30.48,1024,-17640,-20,11072,25721,6088,-5114,56,70
30.50,1024,-18112,364,11728,24735,3314,-5520,56,70
30.52,1030,-17560,400,12468,23459,1345,-5974,56,70
30.54,1028,-17304,384,11752,21953,2172,-7304,56,70
30.56,1036,-17772,536,11044,20516,3471,-8259,56,70
30.58,1008,-18568,800,10828,19328,3506,-9321,56,70
30.60,1035,-18228,892,10900,18519,2653,-10018,56,70
30.62,1040,-16548,736,10628,17951,2714,-10452,56,70
30.64,1039,-15700,464,10048,17447,3395,-10469,56,70
30.66,1044,-15264,284,9040,17169,3624,-10060,56,70
30.68,1026,-15712,212,8472,16930,2913,-9532,56,70
30.70,1031,-16636,104,8324,17033,1596,-8956,56,70
30.72,1024,-16004,-296,8180,17458,824,-8428,56,70
30.74,1036,-16020,-516,7968,17558,793,-7792,56,70
30.76,1022,-15956,-896,7764,17843,524,-7226,56,70
30.78,1034,-15824,-952,7228,17954,343,-6846,56,70
30.80,1015,-16420,-1236,7216,18254,-261,-6695,56,70
30.82,1034,-16320,-1516,7384,18582,-917,-6699,56,70
30.84,1017,-15972,-1796,7256,18780,-1311,-6543,56,70
30.86,1031,-15608,-1840,7068,18800,-1211,-6371,56,70
30.88,1020,-15988,-2216,7032,18754,-1366,-6234,56,70
30.90,1032,-15872,-2240,6904,18888,-1570,-6291,56,70
30.92,1039,-15656,-2328,7148,18816,-1361,-6437,56,70
30.94,1037,-15240,-2416,7632,18601,-893,-6543,56,70
30.96,1016,-15128,-2332,7760,18220,-177,-6350,56,70
30.98,1027,-15672,-1232,7716,17121,649,-5895,56,70
31.00,1028,-15984,-884,8420,16396,1809,-5991,56,70
31.02,1036,-16028,4,9360,15423,3156,-6006,56,70
31.04,1033,-16664,744,10180,14383,3923,-6016,56,70
31.06,1035,-16296,1504,10584,13393,3817,-5885,56,70
31.08,1031,-16956,2284,11348,12292,3100,-5823,56,70
31.10,1032,-16900,2616,12168,11635,2028,-5784,56,70
31.12,1033,-15848,3280,12812,11123,1781,-5262,56,70
31.14,1024,-14876,3752,13264,10521,2605,-4228,56,70
31.16,1030,-14468,3676,13252,10423,3421,-2697,56,70
31.18,1034,-15312,3700,13092,10901,3805,-1262,56,70
31.20,1029,-15884,3748,13904,12864,3224,1342,56,70
31.22,1027,-16004,3680,13644,13520,4300,1720,56,70
31.24,1018,-15868,3080,13124,14586,4415,1793,56,70
31.26,1050,-15992,2844,12984,15532,3206,1684,56,70
31.28,1005,-14596,2488,12568,16422,1855,1522,56,70
31.30,1034,-14428,2448,11980,16390,199,1294,56,70
31.32,1022,-14420,1976,11436,16264,-2703,1071,56,70
31.34,1037,-13608,1416,11068,16183,-4988,768,56,70
31.36,1014,-12328,1320,10360,15683,-5430,426,56,70
31.38,1019,-12308,736,10096,15193,-4921,-37,56,70
31.40,1033,-11992,20,9616,14806,-4581,-379,56,70
31.42,1026,-12304,-328,8804,14479,-4267,-819,56,70
31.44,1014,-12600,-500,8100,14562,-3993,-1364,56,70
31.46,1034,-13636,-772,7696,14671,-4046,-2075,56,70
31.48,1027,-15544,-1096,7784,14874,-5189,-2380,56,70
31.50,1036,-18540,-620,8492,15063,-7443,-2217,56,70
31.52,1037,-21876,1132,9076,14878,-8866,-2310,56,70
31.54,1018,-21944,2404,8784,14202,-8870,-2599,56,70
31.56,1036,-22628,3736,8768,12989,-7166,-4198,56,70
31.58,1020,-21616,4580,9120,12240,-4743,-5999,56,70
31.60,1014,-20784,5532,9564,11068,-3017,-7577,56,70
31.62,1024,-19340,6216,9016,10575,-3489,-8723,56,70
31.64,1023,-16240,6240,8324,10327,-4703,-9645,56,70
31.66,1019,-13644,5288,7836,9971,-4892,-10113,56,70
31.68,1019,-12040,3804,7580,9825,-4288,-9916,56,70
31.70,1028,-12088,2676,7384,9745,-4204,-9020,56,70
31.72,1040,-13140,2208,7248,10105,-4611,-7634,56,70
31.74,1016,-14892,1948,7560,10198,-4943,-6647,56,70
31.76,1036,-16996,1904,8564,10263,-4814,-6311,56,70
31.78,1020,-18716,2836,9160,10177,-4133,-6583,56,70
31.80,1035,-17776,2532,8356,10111,-2167,-7821,56,70
31.82,1039,-15540,1168,7384,10824,476,-8603,56,70
31.84,1020,-14932,472,6864,11801,315,-8577,56,70
31.86,1034,-15308,324,6640,12854,-420,-8538,56,70
31.88,1020,-15232,488,6376,13962,-1204,-8762,56,70
31.90,1035,-15268,848,6276,14735,-1514,-9009,56,70
31.92,1034,-16012,888,6636,15166,-2076,-9305,56,70
31.94,1019,-16652,1320,7048,15297,-2653,-9714,56,70
31.96,1030,-16572,1364,7308,15325,-2839,-9930,56,70
31.98,1020,-15876,884,7248,15142,-2311,-9996,56,70
32.00,1034,-15796,468,6912,14750,-1886,-9769,56,70
32.02,1037,-15696,216,7292,14299,-1543,-9363,56,70
32.04,1024,-15272,-136,8040,13974,-1069,-9057,56,70
32.06,1032,-14904,-272,8452,13581,-850,-8678,56,70
32.08,1018,-14776,-984,8976,13451,-1349,-8073,56,70
32.10,1030,-14356,-888,9460,13392,-1736,-7075,56,70
32.12,1024,-13960,-928,9856,13578,-727,-6107,56,70
32.14,1024,-14396,-1080,11544,13446,233,-4498,56,70
32.16,1027,-15320,-1384,12140,13735,-633,-1854,56,70
32.18,1031,-14096,-1192,12392,14583,-1132,788,56,70
32.20,1033,-12064,88,12792,15273,2042,2512,56,70
32.22,1017,-12896,2460,14672,14870,4025,3636,56,70
32.24,1016,-15328,4760,16332,14561,1217,4306,56,70
32.26,1031,-13536,6276,16104,15408,-3588,5566,56,70
32.28,1028,-11492,7708,15344,16042,-3474,6079,56,70
32.30,1027,-12336,10944,14824,15723,1875,6766,56,70
32.32,1041,-12244,10496,14172,15380,795,7239,56,70
32.34,1026,-11436,9720,13012,14448,-1803,7774,56,70
32.36,1019,-10536,9184,11920,13417,-3840,7993,56,70
32.38,1032,-10616,9876,11744,11775,-4347,8047,56,70
32.40,1030,-10528,10764,11756,10150,-3804,8134,56,70
32.42,1022,-10112,10852,11208,8146,-1861,8227,56,70
32.44,1033,-11088,11032,10632,4511,-42,8297,56,70
32.46,1029,-11844,11936,11204,2957,383,7740,56,70
32.48,1030,-11584,11864,11136,1482,1851,7306,56,70
32.50,1033,-11008,11720,10940,324,4334,6607,56,70
32.52,1037,-10884,11384,10912,-697,6658,6151,56,70
32.54,1029,-9568,10148,10236,-1581,8881,5831,56,70
32.56,1026,-10140,10000,10280,-1909,10213,5716,56,70
32.58,1025,-10584,10000,10808,-2184,10519,5736,56,70
32.60,1029,-10816,9764,10872,-2631,9731,5781,56,70
32.62,1024,-10664,9800,10464,-2384,9152,5782,56,70
32.64,1022,-10804,10124,10608,-2393,10322,5825,56,70
32.66,1036,-11432,10428,11008,-2564,10228,5824,56,70
32.68,1034,-11584,10464,10892,-2485,8382,5808,56,70
32.70,1020,-11368,10404,10444,-2263,6133,5762,56,70
32.72,1016,-11640,10760,10616,-2175,4124,5742,56,70
32.74,1021,-11488,11416,10704,-1766,2619,5881,56,70
32.76,1020,-11044,12824,10696,-1021,1760,6525,56,70
32.78,1032,-10956,14588,10332,-268,1056,7329,56,70
32.80,1034,-11956,17404,10732,365,-1413,8741,56,70
32.82,1029,-13024,21616,10908,933,-5527,10544,56,70
32.84,1021,-15244,-2796,9148,566,-402,535,92,40
32.86,1014,-15672,-2548,9292,655,-360,447,92,40
32.88,1040,-15948,-2608,9252,549,-250,287,92,40
32.90,1013,-15556,-2624,9160,486,-360,267,92,40
32.92,1020,-15352,-2792,9048,437,-239,228,92,40
32.94,1009,-15200,-2548,8984,449,-302,375,92,40
32.96,1028,-15356,-2576,9024,379,-96,323,92,40
32.98,1017,-15800,-2464,8932,426,2,201,92,40
33.00,1024,-15732,-2572,9036,402,-233,82,92,40
33.02,1027,-15440,-2576,9040,395,-492,181,92,40
33.04,1032,-15280,-2460,8852,429,-339,298,92,40
33.06,1012,-15388,-2484,8736,415,-87,275,92,40
33.08,1026,-15628,-2488,8844,383,-99,130,92,40
33.10,1022,-15808,-2664,9204,365,-253,108,92,40
33.12,1014,-15416,-2512,9052,319,-271,262,92,40
33.14,1008,-15232,-2564,9076,251,85,250,92,40
33.16,1025,-15660,-2488,8992,318,318,234,92,40
33.18,1021,-15776,-2392,8836,261,191,154,92,40
33.20,1032,-15776,-2520,8820,106,-109,107,92,40
33.22,1010,-15464,-2600,8772,256,-259,191,92,40
33.24,1027,-15512,-2424,8716,289,-53,87,92,40
33.26,1014,-15864,-2428,8928,255,-21,-18,92,40
33.28,1024,-15556,-2396,8768,285,-97,12,92,40
33.30,1031,-15560,-2676,8724,309,45,77,92,40
33.32,1013,-15740,-2392,8552,363,-114,86,92,40
33.34,1025,-15908,-2588,8532,373,-330,-9,92,40
33.36,1028,-15720,-2512,8720,361,-496,25,92,40
33.38,1013,-15440,-2632,8660,370,-413,72,92,40
33.40,1032,-15392,-2444,8616,411,-316,96,92,40
33.42,1028,-15656,-2416,8548,374,-409,28,92,40
33.44,1012,-15584,-2564,8828,357,-570,58,92,40
33.46,1026,-15616,-2496,8796,337,-375,48,92,40
33.48,1031,-15736,-2564,8760,340,-230,-46,92,40
33.50,1026,-15904,-2440,8504,355,-363,-70,92,40
33.52,1013,-15664,-2440,8720,338,-649,-56,92,40
33.54,1022,-15592,-2568,8744,347,-571,-49,92,40
33.56,1008,-15544,-2540,8776,352,-472,36,92,40
33.58,1033,-15688,-2580,8796,324,-343,32,92,40
33.60,1021,-15668,-2512,8868,338,-374,77,92,40
33.62,1016,-15580,-2416,8696,315,-303,50,92,40
33.64,1028,-15612,-2536,8580,313,-176,15,92,40
33.66,1015,-15728,-2648,8624,340,-211,53,92,40
33.68,1009,-15860,-2588,8724,395,-477,47,92,40
33.70,1013,-15728,-2516,8588,378,-638,-4,92,40
33.72,1027,-15556,-2556,8668,402,-551,14,92,40
33.74,1031,-15688,-2628,8596,479,-479,75,92,40
33.76,1025,-15740,-2332,8564,452,-617,24,92,40
33.78,1028,-15596,-2488,8696,434,-590,-46,92,40
33.80,1025,-15560,-2572,8668,448,-616,2,92,40
33.82,1031,-15648,-2476,8612,426,-589,1,92,40
33.84,1014,-15616,-2488,8720,456,-623,16,92,40
33.86,1026,-15596,-2480,8884,380,-591,-73,92,40
33.88,1015,-15548,-2556,8776,353,-519,-6,92,40
33.90,1010,-15584,-2500,8744,391,-456,15,92,40
33.92,1034,-15576,-2448,8656,383,-386,-19,92,40
33.94,1016,-15680,-2532,8788,344,-499,2,92,40
33.96,1009,-15828,-2664,8840,423,-543,17,92,40
33.98,1013,-15596,-2416,8800,414,-580,0,92,40
34.00,1014,-15468,-2544,8768,340,-388,-41,92,40
34.02,1027,-15636,-2532,8760,375,-321,16,92,40
34.04,1031,-15752,-2532,8748,359,-369,35,92,40
34.06,1021,-15780,-2472,8680,374,-375,7,92,40
34.08,1021,-15648,-2540,8732,406,-536,2,92,40
34.10,1028,-15468,-2612,8832,384,-546,63,92,40
34.12,1015,-15464,-2560,8804,362,-337,71,92,40
34.14,1025,-15844,-2468,8608,375,-340,0,92,40
34.16,1012,-15688,-2492,8652,379,-536,-25,92,40
34.18,1027,-15728,-2664,8724,443,-698,44,92,40
34.20,1029,-15524,-2512,8728,461,-757,126,92,40
34.22,1012,-15552,-2424,8956,406,-497,19,92,40
34.24,1014,-15620,-2544,8820,361,-352,25,92,40
34.26,1018,-15380,-2416,8640,361,-350,38,92,40
34.28,1017,-15576,-2468,8744,349,-364,13,92,40
34.30,1031,-15648,-2504,8732,367,-415,29,92,40
34.32,1021,-15680,-2580,8804,351,-392,0,92,40
34.34,1013,-15748,-2540,8768,403,-373,15,92,40
34.36,1021,-15584,-2572,8676,371,-494,23,92,40
34.38,1012,-15408,-2468,8588,392,-495,20,92,40
34.40,1029,-15528,-2488,8796,332,-392,28,92,40
34.42,1029,-15932,-2628,8776,341,-343,-63,92,40
34.44,1032,-15652,-2432,8860,368,-699,55,92,40
34.46,1016,-15456,-2456,8776,357,-552,-7,92,40
34.48,1034,-15500,-2472,8784,380,-406,23,92,40
34.50,1018,-15644,-2420,8820,331,-365,33,92,40
34.52,1008,-15632,-2484,8776,301,-359,5,92,40
34.54,1009,-15492,-2520,8640,278,-342,-10,92,40
34.56,1016,-15508,-2660,8780,304,-265,24,92,40
34.58,1032,-15796,-2480,8596,343,-337,61,92,40
34.60,1028,-15720,-2364,8684,352,-448,13,92,40
34.62,1035,-15580,-2580,8900,356,-572,-13,92,40
34.64,1033,-15480,-2584,8740,354,-551,75,92,40
34.66,1013,-15288,-2536,8612,360,-309,103,92,40
34.68,1006,-15584,-2528,8728,297,-53,-24,92,40
34.70,1011,-15984,-2580,8632,297,-172,-38,92,40
34.72,1008,-15552,-2636,8524,355,-451,25,92,40
34.74,1017,-15524,-2500,8568,377,-404,14,92,40
34.76,1021,-15652,-2532,8800,304,-329,-18,92,40
34.78,1022,-15576,-2436,8808,331,-295,-16,92,40
34.80,1024,-15668,-2488,8604,287,-304,-7,92,40
34.82,1022,-15408,-2656,8568,337,-335,43,92,40
34.84,996,-15764,-2472,8708,379,-415,-18,92,39
34.86,1018,-15716,-2504,8748,332,-507,8,92,39
34.88,1020,-15640,-2552,8744,382,-513,4,92,39
34.90,1014,-15576,-2576,8768,380,-444,25,92,39
34.92,1021,-15572,-2572,8660,346,-385,74,92,39
34.94,1012,-15564,-2448,8572,371,-431,65,92,39
34.96,1025,-15508,-2508,8788,313,-288,52,92,39
34.98,1028,-15852,-2484,8684,347,-278,-35,92,39
35.00,1023,-15744,-2524,8540,379,-563,6,92,39
35.02,1025,-15560,-2568,8672,405,-710,15,92,39
35.04,1029,-15456,-2528,8740,360,-523,27,92,39
35.06,1024,-15852,-2628,8624,363,-267,26,92,39
35.08,1019,-15880,-2560,8812,338,-347,60,92,39
35.10,1018,-15668,-2604,8452,341,-443,55,92,39
35.12,1015,-15524,-2408,8560,383,-516,33,92,39
35.14,1033,-15600,-2640,8812,373,-490,38,92,39
35.16,1016,-15672,-2480,8696,392,-432,-2,92,39
35.18,1034,-15612,-2488,8820,374,-431,50,92,39
35.20,1028,-15496,-2484,8716,377,-374,23,92,39
35.22,1020,-15620,-2524,8644,372,-458,41,92,39
35.24,1025,-15388,-2516,8672,382,-485,63,92,39
35.26,1037,-15716,-2488,8688,348,-239,15,92,39
35.28,1021,-15936,-2568,8616,373,-356,12,92,39
35.30,1030,-15572,-2536,8564,373,-621,-20,92,39
35.32,1010,-15396,-2576,8700,353,-548,-2,92,39
35.34,1034,-15640,-2540,8620,438,-396,54,92,39
35.36,1020,-15784,-2472,8648,398,-459,-8,92,39
35.38,1010,-15588,-2600,8500,417,-676,-25,92,39
35.40,1014,-15304,-2496,8656,421,-677,20,92,39
35.42,1012,-15544,-2648,8740,384,-286,24,92,39
35.44,1026,-16024,-2520,8596,419,-299,-72,92,39
35.46,1028,-15804,-2552,8588,393,-814,31,92,39
35.48,1019,-15312,-2536,8500,434,-756,6,92,39
35.50,1009,-15600,-2464,8560,491,-588,-22,92,39
35.52,1024,-15840,-2348,8680,520,-756,-135,92,39
35.54,1026,-15996,-2600,8604,528,-847,-349,92,39
35.56,1022,-15772,-2772,8516,594,-1093,-304,92,39
35.58,1018,-15484,-2604,8652,680,-1286,-212,92,39
35.60,1022,-15516,-2492,8856,715,-1235,-223,92,39
35.62,1013,-15608,-2476,8920,664,-1242,-283,92,39
35.64,1032,-15292,-2456,8784,542,-1078,-416,92,39
35.66,999,-15072,-2512,8968,534,-1015,-354,92,39
35.68,1038,-14912,-2348,9056,364,-1137,-316,92,39
35.70,1017,-15164,-2500,9336,13,-888,-310,92,39
35.72,1034,-15848,-2780,9452,-316,-861,-189,92,39
35.74,1006,-15384,-2428,9308,-407,-871,-197,92,39
35.76,1011,-14500,-3040,9488,-551,-518,273,92,39
35.78,1028,-14492,-2932,9356,-496,-39,524,92,39
35.80,1036,-15264,-2784,9648,-295,124,939,92,39
35.82,1016,-15684,-2032,9604,-842,-310,768,92,39
35.84,1025,-15368,-2624,9452,-1313,-35,576,92,39
35.86,1011,-15012,-2952,9104,-1343,1224,812,92,39
35.88,1029,-14984,-2748,8540,-1438,2580,1065,92,39
35.90,1033,-15648,-2528,8260,-1475,3274,1152,92,39
35.92,1008,-16332,-2660,8308,-1586,2891,1057,92,39
35.94,1032,-16120,-2524,8168,-1541,2429,1185,92,39
35.96,1018,-16256,-2684,7928,-1374,2504,1122,92,39
35.98,1006,-17100,-2356,7404,-1112,2267,727,92,39
36.00,1027,-17040,-2708,7308,-633,1370,391,92,39
36.02,1014,-16316,-2748,7572,-27,728,359,92,39
36.04,1038,-16036,-2020,7760,74,248,281,92,39
36.06,1012,-15560,-2292,7732,-60,428,108,92,39
36.08,1021,-15508,-2660,7548,31,677,192,92,39
36.10,1012,-15732,-2516,7224,53,562,269,92,39
36.12,1021,-15936,-2224,7164,125,20,199,92,39
36.14,1010,-16076,-2364,7348,126,-436,77,92,39
36.16,1031,-16000,-2460,7568,245,-903,78,92,39
36.18,1012,-16072,-2568,7368,437,-918,64,92,39
36.20,1036,-15964,-2436,7488,579,-1014,35,92,39
36.22,1012,-15880,-2412,7752,501,-977,-39,92,39
36.24,1032,-15712,-2556,7940,462,-944,123,92,39
36.26,1024,-15420,-2256,8216,214,-746,350,92,39
36.28,1008,-15248,-2228,8340,-214,246,398,92,39
36.30,1016,-15700,-2228,7964,-319,1016,424,92,39
36.32,1006,-15948,-2604,7620,-424,1422,256,92,39
36.34,1013,-16040,-2316,7184,-304,1272,455,92,39
36.36,1018,-16096,-1940,7224,-266,623,443,92,39
36.38,1030,-16052,-2140,7096,-264,269,53,92,39
36.40,1018,-15944,-2596,6956,14,335,-73,92,39
36.42,1024,-16160,-2468,7132,147,292,50,92,39
36.44,1012,-16452,-1864,7276,153,-336,-136,92,39
36.46,1039,-15508,-2728,7464,146,62,-479,92,39
36.48,1020,-16016,-2992,6960,342,401,-25,92,39
36.50,1014,-16692,-1792,6628,447,-462,93,92,39
36.52,1016,-16356,-2540,6948,708,-1156,-371,92,39
36.54,1038,-16064,-2520,7172,772,-1195,-154,92,39
36.56,1031,-16180,-2388,7408,577,-997,-2,92,39
36.58,1026,-15752,-2356,7216,692,-1472,-75,92,39
36.60,1013,-14732,-2332,7204,597,-730,-319,92,39
36.62,1026,-15816,-2460,7364,548,-132,-143,92,39
36.64,1022,-16592,-2268,7560,495,-598,90,92,39
36.66,1009,-15900,-1976,7592,417,-648,-262,92,39
36.68,1029,-15648,-2636,7672,226,429,-388,92,39
36.70,1009,-16196,-2868,7280,216,495,84,92,39
36.72,1017,-15968,-1980,6984,284,-25,5,92,39
36.74,1019,-15428,-2956,6940,450,311,-251,92,39
36.76,1014,-16632,-3036,6960,618,-47,199,92,39
36.78,1030,-16036,-2116,7340,751,-1204,456,92,39
36.80,1020,-15436,-2504,7652,508,-338,313,92,39
36.82,1018,-16176,-2856,7156,650,-12,224,92,39
36.84,1029,-16752,-2792,6972,944,-528,593,92,39
36.86,1027,-16444,-1708,6916,1124,-1677,560,92,39
36.88,1013,-15528,-1420,7536,643,-1711,-55,92,39
36.90,1030,-15752,-2592,8256,302,-1060,-117,92,39
36.92,1002,-15496,-2040,8048,156,-567,116,92,39
36.94,1010,-15308,-2104,7900,-235,393,-64,92,39
36.96,1030,-15244,-2544,7916,-498,1300,-108,92,39
36.98,1008,-16096,-2892,7220,-292,1915,301,92,39
37.00,1030,-16404,-2240,6412,-84,1404,396,92,39
37.02,1029,-16680,-2060,6576,-15,449,147,92,39
37.04,1032,-16384,-2172,6704,86,-280,-188,92,39
37.06,1024,-15944,-2896,6684,351,-382,-29,92,39
37.08,1018,-16204,-2344,6772,407,-507,111,92,39
37.10,1015,-15832,-1928,7420,366,-795,-86,92,39
37.12,1029,-15272,-2632,7360,236,223,-57,92,39
37.14,1020,-16504,-2516,7000,109,466,275,92,39
37.16,1013,-16160,-2108,6968,65,-93,307,92,39
37.18,1032,-15848,-1576,7512,-292,-50,-60,92,39
37.20,1010,-16092,-2856,7784,-713,671,-427,92,39
37.22,1027,-16268,-2420,7120,-779,553,170,92,39
37.24,1026,-16692,-1836,6920,-1008,57,92,92,39
37.26,1026,-16208,-1524,7332,-1194,-887,-460,92,39
37.28,1020,-15148,-2920,7916,-1404,188,-800,92,39
37.30,1014,-15100,-3340,7200,-1450,1980,-32,92,39
37.32,1030,-16176,-1784,6072,-1767,1860,419,92,39
37.34,1008,-16728,-1704,6368,-1935,574,-470,92,39
37.36,1032,-16248,-2652,6652,-1805,152,-582,92,39
37.38,1017,-16036,-3372,6068,-1484,605,-187,92,39
37.40,1028,-16284,-2804,5548,-1125,680,207,92,39
37.42,1024,-16248,-1200,6328,-1129,-157,-514,92,39
37.44,1022,-15564,-3688,6416,-788,761,-1046,92,39
37.46,1024,-15476,-3604,5520,-524,1497,-111,92,39
37.48,1025,-16300,-3116,4132,-37,1393,529,92,39
37.50,1022,-17160,-1452,4456,402,-1276,213,92,39
37.52,1025,-16152,-2672,5864,867,-2056,-1030,92,39
37.54,1028,-16332,-3420,6336,959,-1964,-568,92,39
37.56,1011,-15260,-3536,6980,652,-1821,637,92,39
37.58,1003,-12764,-1640,7384,-213,-278,572,92,39
37.60,1003,-12628,-2024,7436,279,2695,705,92,39
37.62,1039,-17324,-3208,5844,-457,5557,936,92,39
37.64,1016,-18740,-2948,4792,189,2788,1231,92,39
37.66,1021,-17180,-3312,4440,580,1371,1167,92,39
37.68,1019,-16840,-1748,4268,796,-758,923,92,39
37.70,1002,-15712,-2776,5100,792,-1364,534,92,39
37.72,1014,-15956,-3216,5640,1052,-955,1171,92,39
37.74,1014,-16580,-2132,5720,1163,-353,1392,92,39
37.76,1011,-16468,-1988,6476,1263,31,873,92,39
37.78,1023,-16308,-1568,6912,912,287,578,92,39
37.80,1027,-15732,-2036,6680,665,1185,503,92,39
37.82,1012,-15132,-2104,6544,321,2567,880,67,43
37.84,1032,-15268,-2056,5528,238,3700,864,67,43
37.86,1026,-16844,-1908,4852,-9,3398,858,67,43
37.88,1025,-18112,-1668,4608,-236,1415,529,67,43
37.90,1021,-16796,-2388,5068,-4,230,393,67,43
37.92,1020,-15824,-1872,5232,-43,814,174,67,43
37.94,1005,-16412,-2452,4892,86,1328,217,67,43
37.96,1017,-17180,-1792,4428,203,301,168,67,43
37.98,1011,-16064,-2312,4704,349,-308,92,67,43
38.00,1028,-16388,-2064,4464,705,-132,22,67,43
38.02,1011,-17004,-2060,4216,712,-964,-45,67,43
38.04,1025,-16508,-1768,5212,624,-1860,52,67,43
38.06,1011,-14820,-1892,6456,178,-828,-123,67,43
38.08,1029,-15640,-1972,5564,-76,1199,163,67,43
38.10,1031,-16792,-2156,4264,-1,915,145,67,43
38.12,1022,-17296,-2200,3728,402,-428,-1,67,43
38.14,1020,-16408,-1796,4372,552,-1866,-187,67,43
38.16,1032,-16020,-2316,5120,401,-1764,-165,67,43
38.18,1029,-16072,-2524,5764,386,-1048,233,67,43
38.20,1028,-15176,-1516,5556,225,318,315,67,43
38.22,1036,-16256,-1736,4996,-78,1207,-90,67,43
38.24,1024,-16452,-2240,4676,-6,878,38,67,43
38.26,1024,-16000,-2096,4752,103,855,76,67,43
38.28,1033,-16456,-1944,4548,79,778,74,67,43
38.30,1026,-16300,-2132,4684,-56,344,83,67,43
38.32,1025,-16012,-2252,4860,-72,672,140,67,43
38.34,1024,-16524,-2416,4276,195,855,313,67,43
38.36,1009,-16844,-1660,3664,462,100,148,67,43
38.38,1026,-16772,-1948,3864,703,-892,-207,67,43
38.40,1037,-16496,-1924,4168,854,-1661,-253,67,43
38.42,1007,-16216,-1996,5240,492,-1972,-275,67,43
38.44,1026,-15136,-2412,6048,304,-429,-51,67,43
38.46,1026,-15688,-1880,4732,116,1022,216,67,43
38.48,1025,-17184,-2172,3480,100,587,10,67,43
38.50,1024,-17676,-2220,3412,641,-1502,-16,67,43
38.52,1015,-16444,-1940,4540,786,-2520,-177,67,43
38.54,1009,-15384,-2008,5644,696,-1737,-101,67,43
38.56,1024,-15264,-2060,5380,294,-117,36,67,43
38.58,1032,-16024,-2156,4812,106,593,99,67,43
38.60,1030,-16440,-2092,4576,229,516,107,67,43
38.62,1021,-16620,-1840,4224,318,175,-78,67,43
38.64,1030,-16908,-2348,4288,461,-556,-137,67,43
38.66,1026,-16000,-2144,4788,341,-884,-31,67,43
38.68,1024,-15612,-2048,5220,195,-77,69,67,43
38.70,1026,-16368,-2164,4580,174,365,283,67,43
38.72,1037,-16900,-1852,3800,458,-95,-20,67,43
38.74,1006,-16632,-2100,4396,676,-990,-147,67,43
38.76,1024,-15872,-1984,4692,685,-960,-128,67,43
38.78,1025,-16232,-2124,4492,629,-492,-121,67,43
38.80,1024,-17000,-2072,4080,603,-1318,-55,67,43
38.82,1018,-16908,-1916,4428,570,-2322,-94,67,43
38.84,1031,-16336,-2388,4812,612,-2470,-175,67,43
38.86,1027,-16156,-2244,5032,775,-2272,-14,67,43
38.88,1028,-15760,-2040,5312,789,-1833,-26,67,43
38.90,1021,-16240,-1856,5296,520,-1347,-24,67,43
38.92,1023,-15728,-2096,5456,474,-1163,14,67,43
38.94,1025,-15980,-2152,5292,388,-254,92,67,43
38.96,1022,-16088,-1764,5264,211,-78,130,67,43
38.98,1012,-15648,-1800,5552,64,377,-4,67,43
39.00,1017,-15736,-2148,5216,-11,1410,-12,67,43
39.02,1024,-17408,-2132,4084,103,1045,-46,67,43
39.04,1031,-17284,-2372,4176,414,-704,-92,67,43
39.06,1023,-15740,-2116,5260,360,-1075,-35,67,43
39.08,1014,-15264,-2348,5692,215,213,213,67,43
39.10,1034,-16852,-2120,4348,260,558,282,67,43
39.12,1029,-16728,-2032,4296,513,-181,148,67,43
39.14,1023,-16700,-2104,4496,748,-713,-65,67,43
39.16,1024,-16204,-2088,4744,697,-742,-33,67,43
39.18,1027,-16396,-1936,4988,554,-878,-33,67,43
39.20,1031,-16232,-2172,5068,541,-805,-67,67,43
39.22,1021,-16268,-2140,5012,459,-788,-43,67,43
39.24,1010,-15404,-2220,5164,270,-363,93,67,43
39.26,1016,-16156,-2064,4892,192,352,212,67,43
39.28,1030,-16660,-2032,4620,237,217,198,67,43
39.30,1017,-16624,-2204,4636,336,-243,121,67,43
39.32,1024,-16460,-2052,4612,398,-590,31,67,43
39.34,1022,-16100,-1944,4904,400,-754,-5,67,43
39.36,1018,-15880,-2184,4948,386,-365,20,67,43
39.38,1032,-16612,-2084,4612,341,-392,147,67,43
39.40,1031,-16468,-2064,4752,439,-741,179,67,43
39.42,1026,-15864,-2024,5112,384,-566,57,67,43
39.44,1009,-15584,-1956,5472,162,85,157,67,43
39.46,1024,-15852,-2024,5316,-141,1005,228,67,43
39.48,1024,-16432,-2320,4516,-51,1425,370,67,43
39.50,1012,-17588,-1932,3564,198,510,146,67,43
39.52,1024,-17040,-2316,3864,603,-1143,-59,67,43
39.54,1028,-15880,-1856,4752,695,-1432,-31,67,43
39.56,1023,-15628,-1864,5320,506,-881,-26,67,43
39.58,1022,-16300,-2084,5160,183,-206,-14,67,43
39.60,1012,-16380,-2076,4488,280,-380,53,67,43
39.62,1021,-16448,-2084,4324,390,-674,30,67,43
39.64,1031,-16656,-2132,4356,526,-964,23,67,43
39.66,1021,-16796,-2132,4364,665,-1602,-113,67,43
39.68,1024,-16848,-2116,4320,825,-2441,-176,67,43
39.70,1026,-16632,-2008,4720,878,-3187,-248,67,43
39.72,1024,-16656,-1748,4824,821,-3782,-430,67,43
39.74,1026,-16820,-1908,5068,682,-4667,-458,67,43
39.76,1008,-16248,-2196,5832,686,-4831,-519,67,43
39.78,1027,-15516,-1984,6332,641,-3620,-561,67,43
39.80,1005,-14936,-2556,6692,-351,-942,252,67,43
39.82,1016,-15044,-2100,6872,37,241,681,67,43
39.84,1016,-15252,-1988,6080,-248,1274,452,67,43
39.86,1030,-15824,-1904,5064,-101,1483,-92,67,43
39.88,1029,-16692,-2224,5212,-605,961,337,67,43
39.90,1026,-16940,-1912,5244,-750,-327,344,67,43
39.92,1014,-16100,-1864,5904,-1270,-355,532,67,43
39.94,1022,-16320,-1752,6344,-1672,180,547,67,43
39.96,1028,-15588,-1964,6508,-2051,740,827,67,43
39.98,1017,-15564,-1840,6184,-2580,2117,1166,67,43
40.00,1016,-16076,-1584,5928,-2758,3023,983,67,43
40.02,1008,-16908,-1784,5224,-2666,3063,846,67,43
40.04,1021,-16732,-1904,4412,-2252,2546,669,67,43
40.06,1025,-16720,-1968,3868,-1821,2095,417,67,43
40.08,1026,-16552,-2092,3412,-1359,1567,237,67,43
40.10,1013,-16460,-2216,2880,-776,859,290,67,43
40.12,1030,-16072,-2032,2896,-266,99,261,67,43
40.14,1009,-15776,-2112,3020,164,-471,264,67,43
40.16,1020,-16068,-1872,3752,231,-531,283,67,43
40.18,1020,-16688,-1896,4712,195,-832,419,67,43
40.20,1020,-16384,-1828,4836,226,-634,416,67,43
40.22,1012,-16508,-1596,4676,231,-66,213,67,43
40.24,1025,-16328,-1728,4440,163,21,17,67,43
40.26,1031,-16096,-1908,4216,165,131,203,67,43
40.28,1024,-16108,-1944,3656,243,137,312,67,43
40.30,1019,-16340,-1864,3652,385,-25,374,67,43
40.32,1024,-16436,-1784,4080,344,-478,595,67,43
40.34,1029,-16228,-1820,4488,221,-415,852,67,43
40.36,1030,-16428,-1652,4476,267,99,873,67,43
40.38,1032,-16728,-1644,3996,341,73,729,67,43
40.40,1018,-16276,-1576,3808,569,-198,447,67,43
40.42,1021,-16460,-1444,3868,734,-500,162,67,43
40.44,1017,-16464,-1536,4092,707,-776,127,67,43
40.46,1008,-16220,-1532,4356,660,-745,89,67,43
40.48,1016,-16128,-1536,4576,562,-452,131,67,43
40.50,1024,-16536,-1532,4588,535,-32,97,67,43
40.52,1025,-16424,-1504,4184,521,-129,82,67,43
40.54,1027,-16324,-1692,4020,472,-212,42,67,43
40.56,1012,-16156,-1672,4048,423,-283,113,67,43
40.58,1012,-16368,-1600,4044,446,-457,124,67,43
40.60,1027,-16384,-1476,4092,523,-575,43,67,43
40.62,1007,-16240,-1592,4256,468,-705,47,67,43
40.64,1013,-15868,-1428,4484,374,-501,196,67,43
40.66,1027,-16292,-1552,4416,343,-248,92,67,43
40.68,1024,-16356,-1452,4136,402,-315,13,67,43
40.70,1012,-16460,-1672,3980,372,-425,35,67,43
40.72,1008,-16288,-1468,4216,234,-551,192,67,43
40.74,1009,-16032,-1548,4764,-8,-280,401,67,43
40.76,1025,-16060,-1468,4560,-138,234,535,67,43
40.78,1026,-16644,-1344,3796,-38,572,271,67,43
40.80,1032,-16716,-1536,3600,174,3,200,67,43
40.82,1016,-16680,-1480,3688,351,-347,-38,67,48
40.84,1014,-16560,-1368,4044,446,-665,-177,67,48
40.86,1014,-16288,-1556,4340,396,-628,-164,67,48
40.88,1017,-16132,-1468,4308,321,-309,-94,67,48
40.90,1012,-15760,-1580,4124,212,-76,136,67,48
40.92,1008,-15924,-1460,3932,166,83,248,67,48
40.94,1014,-16392,-1600,3872,102,-74,337,67,48
40.96,1016,-16476,-1360,4176,27,-441,406,67,48
40.98,1006,-16344,-1400,4296,79,-125,257,67,48
41.00,1014,-16952,-1428,4048,154,333,-70,67,48
41.02,1012,-16976,-1568,3756,346,92,-103,67,48
41.04,1011,-16904,-1388,3660,407,-349,-326,67,48
41.06,1022,-15092,-1556,4392,139,-405,145,67,48
41.08,1016,-15796,-1372,3968,-25,588,237,67,48
41.10,1013,-16740,-1596,3152,160,261,176,67,48
41.12,1012,-16648,-1528,3484,316,-556,295,67,48
41.14,1025,-15488,-1424,4292,36,-790,685,67,48
41.16,1017,-16224,-1412,4316,-74,55,643,67,48
41.18,1012,-16776,-1432,3612,208,336,483,67,48
41.20,1018,-16104,-1324,4080,154,116,568,67,48
41.22,1014,-15552,-1484,4192,-55,329,996,67,48
41.24,1024,-15652,-1392,4124,-209,1209,1168,67,48
41.26,1031,-16776,-1196,3760,-298,1900,1354,67,48
41.28,1013,-16988,-1076,3584,-185,1826,1293,67,48
41.30,1009,-16836,-1028,3020,-10,1582,1040,67,48
41.32,1018,-16344,-824,3080,115,962,813,67,48
41.34,1006,-15852,-1064,3340,112,705,775,67,48
41.36,1013,-16144,-956,3320,40,922,836,67,48
41.38,1028,-17320,-920,2864,7,565,518,67,48
41.40,1026,-17336,-792,2580,235,-117,198,67,48
41.42,1010,-16688,-932,2656,468,-1115,-147,67,48
41.44,1019,-16276,-1064,3168,609,-1307,-316,67,48
41.46,1026,-16596,-1000,3020,698,-1058,-428,67,48
41.48,1006,-16796,-664,2852,802,-1223,-881,67,48
41.50,1016,-16608,-824,2412,1148,-1396,-1362,67,48
41.52,1012,-16988,-1644,1824,1833,-1827,-2005,67,48
41.54,1015,-16844,-1444,2032,2350,-3058,-2158,67,48
41.56,1002,-16552,-1312,3528,2227,-4326,-2017,67,48
41.58,1010,-16044,-1748,4132,2124,-4067,-1607,67,48
41.60,1016,-16164,-1792,4196,2153,-3577,-1293,67,48
41.62,1015,-16072,-848,4608,2248,-3015,-1735,67,48
41.64,1006,-16744,-1656,4372,2293,-3781,-1773,67,48
41.66,1005,-16468,-1772,4060,2439,-4302,-1580,67,48
41.68,1034,-16824,-1852,3868,2624,-4825,-1841,67,48
41.70,1004,-16944,-2000,3856,3142,-6259,-2133,67,48
41.72,1021,-16736,-2000,4568,3714,-6569,-2441,67,48
41.74,1002,-17120,-2256,4788,4817,-5961,-3252,67,48
41.76,1017,-17052,-2492,4880,5270,-5745,-3210,67,48
41.78,1002,-16976,-2376,5384,5140,-6055,-2530,67,48
41.80,1018,-18516,-2152,5568,5383,-7466,-2961,67,48
41.82,1009,-21016,-1452,5668,5859,-8463,-4604,67,48
41.84,1011,-18236,-2628,4340,5241,-6988,-4862,67,48
41.86,1031,-16864,-3888,3208,6263,-5479,-6311,67,48
41.88,1033,-17880,-2748,2980,7404,-6553,-6359,67,48
41.90,1008,-18620,-2384,4544,7541,-11324,-7309,67,48
41.92,1012,-16048,-3212,6320,7823,-16155,-7647,67,48
41.94,1035,-11496,-2920,8916,8563,-14729,-7462,67,48
41.96,1026,-8580,-2924,11836,8236,-6382,-7223,67,48
41.98,1029,-9540,-3476,13204,8387,3059,-6707,67,48
42.00,1028,-12448,-3852,13016,7696,8132,-5722,67,48
42.02,1017,-14448,-3528,11916,7646,9069,-4759,67,48
42.04,1015,-15812,-3548,11168,6044,7245,-4482,67,48
42.06,1031,-15012,-3484,10944,5055,4264,-3672,67,48
42.08,1012,-14244,-3184,11964,3308,1852,-3862,67,48
42.10,1031,-13408,-4536,11800,2002,-493,-2913,67,48
42.12,1020,-11436,-5312,10880,1459,-10,-1636,67,48
42.14,1012,-11564,-4684,9660,1624,2758,-849,67,48
42.16,1027,-12620,-5428,8160,1633,5511,-223,67,48
42.18,1027,-14884,-6016,7304,1676,5654,-171,67,48
42.20,1016,-14320,-5044,7508,2201,2795,504,67,48
42.22,1023,-13504,-3940,8916,1353,2498,920,67,48
42.24,1024,-14244,-5704,9660,1291,2519,1179,67,48
42.26,1011,-14680,-4820,8968,1693,2637,1808,67,48
42.28,1020,-14732,-4772,7960,972,3638,2651,67,48
42.30,1018,-15596,-4024,7612,667,3197,1973,67,48
42.32,1025,-14516,-4612,8128,32,2403,2257,67,48
42.34,1009,-14128,-4984,7200,482,4600,2090,67,48
42.36,1021,-15252,-4312,6948,862,5435,2590,67,48
42.38,1014,-15376,-3884,6924,982,4127,2901,67,48
42.40,1021,-15916,-3456,6340,517,4394,2530,67,48
42.42,1026,-16848,-3824,6328,250,3455,2331,67,48
42.44,1026,-16552,-3440,6056,46,1759,2182,67,48
42.46,1014,-16452,-3784,6312,-95,689,2193,67,48
42.48,1015,-17336,-3364,6420,-8,50,2027,67,48
42.50,1020,-18216,-3544,5940,-61,-1249,1596,67,48
42.52,1019,-17528,-3468,6160,-423,-3021,1189,67,48
42.54,1008,-16528,-3376,6640,-596,-4390,930,67,48
42.56,1009,-16168,-3456,7216,-811,-5429,868,67,48
42.58,992,-15456,-3176,8032,-1286,-6637,1200,67,48
42.60,1017,-14540,-2984,8600,-2065,-6373,1537,67,48
42.62,1028,-14812,-3056,8832,-2954,-5343,1604,67,48
42.64,1004,-14896,-3328,8472,-3663,-4955,1783,67,48
42.66,1010,-15200,-3296,8356,-4109,-4738,1880,67,48
42.68,1014,-15864,-3400,7944,-3615,-3922,1618,67,48
42.70,1019,-15764,-3520,7576,-2768,-2718,1666,67,48
42.72,1027,-15384,-2896,7588,-2108,-1182,1268,67,48
42.74,1024,-16192,-3144,7456,-1866,1108,685,67,48
42.76,1036,-17560,-3244,7656,-1661,2175,-72,67,48
42.78,1016,-17336,-3252,7784,-1559,1051,146,67,48
42.80,1026,-16144,-3120,8180,-1644,-344,303,67,48
42.82,1030,-14792,-3300,8208,-1701,-983,587,67,48
42.84,1015,-13396,-3372,7660,-1745,-977,858,67,48
42.86,1008,-14032,-3468,7292,-1938,-108,864,67,48
42.88,1027,-15160,-3648,6868,-1932,257,1380,67,48
42.90,1017,-15112,-3560,6572,-1282,37,2106,67,48
42.92,1012,-15128,-3596,5860,-740,820,2290,67,48
42.94,1021,-15812,-3696,5144,-68,1027,2326,67,48
42.96,1022,-16348,-3340,4916,761,640,2334,67,48
42.98,1020,-16680,-3128,5180,1561,-489,2277,67,48
43.00,1005,-16976,-2564,5832,2288,-2049,2181,67,48
43.02,1028,-17432,-1408,7372,2508,-4215,1580,67,48
43.04,1024,-17224,-1648,8788,2086,-5214,884,67,48
43.06,1002,-16300,-2344,10112,1736,-4375,589,67,48
43.08,1011,-15812,-2024,10448,1156,-2434,375,67,48
43.10,1015,-15240,-1468,9924,419,-684,-180,67,48
43.12,1016,-14604,-2280,9404,-248,1127,-361,67,48
43.14,1009,-14792,-2724,8380,-410,2556,35,67,48
43.16,1010,-15588,-2348,7504,-466,2939,275,67,48
43.18,1033,-16168,-2436,7388,-390,2419,225,67,48
43.20,1016,-16416,-2584,7092,-194,1699,158,67,48
43.22,1025,-16160,-2696,7092,-11,955,226,67,48
43.24,1034,-15932,-2452,7132,124,535,175,67,48
43.26,997,-16104,-2260,7216,193,237,72,67,48
43.28,1023,-16120,-2412,7392,176,-23,-88,67,48
43.30,1017,-16084,-2692,7372,193,135,-54,67,48
43.32,1013,-16444,-2324,7256,283,144,20,67,48
43.34,1024,-16352,-1824,7448,163,-278,-281,67,48
43.36,1004,-15936,-2300,7564,-32,-167,-684,67,48
43.38,1013,-15532,-2868,7552,-14,435,-455,67,48
43.40,1017,-15964,-2704,7224,54,801,-120,67,48
43.42,1022,-16448,-2684,7184,50,657,-103,67,48
43.44,1013,-16344,-2416,7240,107,251,-84,67,48
43.46,1015,-15896,-2640,7044,127,153,-101,67,48
43.48,1014,-15792,-2676,6956,175,197,-13,67,48
43.50,1017,-16108,-2468,6904,225,159,-25,67,48
43.52,1021,-16076,-2424,6956,246,-151,-64,67,48
43.54,1020,-16048,-2492,7044,179,-258,-135,67,48
43.56,1024,-15808,-2724,7020,233,-211,-84,67,48
43.58,1011,-15968,-2584,6868,262,-294,-24,67,48
43.60,1016,-15984,-2480,6764,266,-444,-88,67,48
43.62,1010,-16056,-2584,7036,247,-601,-178,67,48
43.64,1012,-16000,-2724,7140,245,-668,-113,67,48
43.66,1025,-15944,-2680,7044,256,-556,18,67,48
43.68,1026,-15840,-2536,7068,194,-307,29,67,48
43.70,1013,-15984,-2456,7076,184,-322,-24,67,48
43.72,1020,-15800,-2740,7004,197,-257,-16,67,48
43.74,1018,-15660,-2696,6896,181,-41,111,67,48
43.76,1018,-15972,-2580,6848,237,61,148,67,48
43.78,1026,-16108,-2456,6672,254,-91,62,67,48
43.80,1016,-16072,-2556,6880,274,-408,-16,65,46
43.82,1010,-15888,-2704,6916,328,-552,-37,65,46
43.84,1011,-15796,-2584,6748,344,-491,7,65,46
43.86,1012,-16128,-2704,6996,375,-368,7,65,46
43.88,1015,-16368,-2540,7048,447,-645,23,65,46
43.90,1021,-15852,-2700,7116,391,-668,-55,65,46
43.92,1006,-15876,-2704,6896,414,-320,51,65,46
43.94,1022,-16072,-2576,6780,357,-279,81,65,46
43.96,1036,-16156,-2368,7008,377,-513,10,65,46
43.98,1021,-15800,-2608,7088,308,-418,-37,65,46
44.00,1007,-15828,-2692,7032,345,-107,-22,65,46
44.02,1003,-16148,-2552,6736,322,-132,-9,65,46
44.04,1013,-16232,-2696,6632,413,-431,-2,65,46
44.06,1014,-16116,-2580,6804,419,-618,11,65,46
44.08,1030,-15920,-2524,6824,413,-652,-59,65,46
44.10,1019,-15916,-2584,6936,414,-563,-24,65,46
44.12,1019,-16028,-2572,7012,377,-563,1,65,46
44.14,1008,-16048,-2628,7028,408,-515,44,65,46
44.16,1019,-15956,-2496,7024,391,-484,-18,65,46
44.18,1009,-16008,-2632,6868,369,-425,-56,65,46
44.20,1014,-15900,-2736,6984,397,-509,27,65,46
44.22,1012,-15908,-2612,6916,454,-598,51,65,46
44.24,1031,-16056,-2516,7120,410,-621,26,65,46
44.26,1016,-15856,-2496,7096,382,-548,9,65,46
44.28,1014,-15764,-2604,7072,373,-436,24,65,46
44.30,1012,-15996,-2612,7036,356,-401,42,65,46
44.32,1020,-15996,-2564,7048,365,-455,52,65,46
44.34,1025,-15960,-2484,6976,379,-451,-1,65,46
44.36,1014,-15828,-2628,7008,408,-518,55,65,46
44.38,1015,-15912,-2620,7000,382,-491,45,65,46
44.40,1016,-15932,-2604,6976,375,-394,84,65,46
44.42,1012,-16120,-2560,7004,358,-419,52,65,46
44.44,1008,-15924,-2632,6976,394,-514,56,65,46
44.46,1025,-15892,-2560,7028,350,-335,40,65,46
44.48,1013,-16236,-2644,6860,350,-183,55,65,46
44.50,1019,-16160,-2560,7036,401,-601,145,65,46
44.52,1004,-15704,-2724,7016,458,-588,51,65,46
44.54,1024,-16012,-2624,7004,438,-389,82,65,46
44.56,1021,-16076,-2524,6936,410,-438,30,65,46
44.58,1031,-16120,-2704,6984,424,-592,-20,65,46
44.60,1036,-15964,-2556,7020,428,-651,73,65,46
44.62,1025,-15820,-2488,7116,347,-476,42,65,46
44.64,1008,-15924,-2604,6892,347,-414,32,65,46
44.66,1023,-16064,-2712,6996,348,-420,78,65,46
44.68,1013,-16160,-2512,6936,376,-555,81,65,46
44.70,1016,-16028,-2484,6996,384,-643,12,65,46
44.72,1005,-16012,-2640,7020,414,-648,16,65,46
44.74,1019,-16056,-2592,7112,423,-779,126,65,46
44.76,1023,-15760,-2440,7092,334,-606,122,65,46
