Time,GRS,Ax,Ay,Az,Gx,Gy,Gz,HR,SPO2
0.00,1024,-32768,32767,32767,-32768,899,32767,67,42
0.02,1020,-32768,3708,32767,-32768,-10131,24096,67,42
0.04,1020,-32768,-22716,32767,-32768,-12047,3708,67,42
0.06,1026,-32768,-17564,18952,-32768,-24301,-4660,67,42
0.08,1009,-32768,-2040,13484,-32768,-24654,-14598,67,42
0.10,1011,-32768,2688,8880,-32768,-22622,-27548,67,42
0.12,1016,-32768,7536,5876,-32768,-23952,-32768,67,42
0.14,1020,-32768,12804,6208,-32768,-21926,-32768,67,42
0.16,1023,-32768,14888,9612,-32768,-15858,-32768,67,42
0.18,1019,-32684,14724,11680,-32768,-8581,-32768,67,42
0.20,1009,-32768,12708,15392,-32768,-7428,-32768,67,42
0.22,1017,-20412,12856,16140,-32768,-3729,-32768,67,42
0.24,1016,-36,16412,9312,-25600,3602,-30320,67,42
0.26,1016,19596,24756,1204,-11445,7705,-21938,67,42
0.28,1018,32767,32767,800,-629,5696,-17696,67,42
0.30,1019,32767,32767,-5328,-455,1499,-16313,67,42
0.32,1024,32767,30400,-9644,2104,-2991,-2470,67,42
0.34,1032,32767,18376,-9060,15539,1018,15436,67,42
0.36,1020,31536,11728,-6548,28784,10969,32767,67,42
0.38,1028,14572,11808,-444,32767,15783,32767,67,42
0.40,1028,-14748,21192,8644,32767,5365,32767,67,42
0.42,1017,-32768,29964,12280,32767,-1064,32767,67,42
0.44,1006,-32768,28588,7988,32767,-7692,32767,67,42
0.46,1030,-32768,21052,3228,32767,11216,32767,67,42
0.48,1029,-32768,15048,736,32767,32767,25447,67,42
0.50,1024,-32768,16968,1416,32767,32767,22390,67,42
0.52,1011,-31892,18612,6548,32767,32767,22711,67,42
0.54,1032,-25760,13716,8724,32767,25118,20692,67,42
0.56,1011,-15516,10684,6984,32767,29934,16765,67,42
0.58,1022,-21640,16992,15068,32767,32767,12081,67,42
0.60,1027,-31692,21216,32008,32767,31402,7139,67,42
0.62,1032,-32768,16864,32767,25858,21585,1646,67,42
0.64,1025,-32768,18440,32767,16898,7095,-5748,67,42
0.66,1026,-32768,29788,32767,12675,-2848,-9714,67,42
0.68,1024,-32768,32767,32767,3437,-6877,-12285,67,42
0.70,1031,-30332,32767,32767,-17378,-16826,-12493,67,42
0.72,1012,-28556,27840,32767,-29115,-21047,-14098,67,42
0.74,1032,-32768,26768,32767,-28628,-18780,-10430,67,42
0.76,1024,-32768,27332,32767,-31162,-17495,-9822,67,42
0.78,1017,-32768,24472,26256,-32768,-14944,-11953,67,42
0.80,1012,-32768,17568,14400,-32768,-16490,-22055,67,42
0.82,1024,-27140,10844,8480,-32768,-20219,-30631,67,42
0.84,1011,-20648,7092,3596,-32768,-25242,-32768,67,42
0.86,1011,-20816,8988,1476,-32768,-27176,-32768,67,42
0.88,1021,-22692,13196,-80,-32768,-29081,-32768,67,42
0.90,1028,-24916,13904,-548,-32768,-32587,-32768,67,42
0.92,1010,-26236,14788,76,-32768,-32768,-32768,67,42
0.94,1030,-25044,16996,904,-32768,-30586,-32768,67,42
0.96,1014,-21068,17564,-128,-32768,-26868,-32768,67,42
0.98,1024,-15604,16100,-572,-32768,-24199,-32768,67,42
1.00,1020,-4856,14616,-4,-32768,-19862,-31913,67,42
1.02,1023,9996,14540,-436,-27408,-15931,-22531,67,42
1.04,1019,23372,16544,-2228,-20060,-13664,-13600,67,42
1.06,1020,32767,15592,-2824,-11746,-9862,-7377,67,42
1.08,1024,32767,16268,-3096,786,-9662,-2983,67,42
1.10,1018,32767,20352,-8552,11364,-10640,5219,67,42
1.12,1026,32767,23088,-12884,18946,-5295,12327,67,42
1.14,1026,32767,22660,-12788,24753,2288,20700,67,42
1.16,1025,25560,14532,-6288,29878,7467,32635,67,42
1.18,1026,10264,12628,-808,32767,14368,32767,67,42
1.20,1020,-9224,20876,3580,32767,14659,32767,67,42
1.22,1015,-32768,32767,10480,32767,12459,32767,67,42
1.24,1009,-32768,32767,13296,32767,15582,32767,67,42
1.26,1024,-32768,32767,12544,32767,28673,32767,67,42
1.28,1026,-32768,25880,9176,32767,32767,32767,67,42
1.30,1016,-32768,21692,6636,32767,32767,32767,67,42
1.32,1024,-32768,19912,14052,32767,24094,32767,67,42
1.34,1024,-25080,18592,17604,32767,27057,32767,67,42
1.36,1024,-24900,14056,13656,32767,32767,29848,67,42
1.38,1023,-32768,9344,20560,31737,22639,27587,67,42
1.40,1016,-32768,728,32767,26481,13400,18962,67,42
1.42,1009,-31908,-9108,32767,21770,8078,5909,67,42
1.44,1023,-32768,-12568,32767,17039,2211,-5196,67,42
1.46,1017,-32768,-4032,32767,10812,-5693,-13430,67,42
1.48,1027,-32768,4332,32767,-1584,-15414,-21528,67,42
1.50,1020,-32768,14512,32767,-9467,-22695,-27943,67,42
1.52,1022,-32768,26316,32767,-14851,-19452,-31289,67,42
1.54,1012,-32768,32767,32767,-19014,-11027,-30807,67,42
1.56,1029,-32768,32767,32767,-24830,-9464,-29609,67,42
1.58,1024,-32768,29360,32460,-31245,-13248,-31296,67,42
1.60,1021,-32768,20488,22472,-31463,-13898,-32768,67,42
1.62,1027,-22792,15196,15004,-31659,-13413,-32768,67,42
1.64,1026,-15668,10460,11048,-32097,-15661,-32768,67,42
1.66,1024,-12960,9072,6988,-30257,-16715,-32768,67,42
1.68,1032,-12908,10944,2976,-28178,-18266,-32768,67,42
1.70,1014,-13728,12672,2060,-27733,-20281,-32768,67,42
1.72,1028,-14296,13112,3580,-27184,-20377,-32768,67,42
1.74,1020,-17240,13428,4724,-26729,-22375,-32768,67,42
1.76,1014,-19372,13872,5716,-25934,-26393,-32768,67,42
1.78,1019,-17068,14968,5460,-25589,-30302,-32768,67,42
1.80,1017,-10524,15080,4788,-26822,-31293,-32768,67,42
1.82,1013,-1540,12960,2324,-27391,-28365,-28519,67,42
1.84,1018,9648,10880,-1092,-24039,-22785,-19717,67,42
1.86,1009,18248,10208,-3144,-19036,-23195,-10121,67,42
1.88,1016,24400,9956,-3276,-12853,-16832,-3817,67,42
1.90,1019,30068,11108,-6860,-4214,-9246,439,67,42
1.92,1021,32767,12452,-10668,4498,-11229,6741,67,42
1.94,1011,32767,12264,-10016,11704,-10835,11971,67,42
1.96,1023,32767,10292,-9736,18088,-4567,18186,67,42
1.98,1026,28992,3740,-5980,26163,-899,27968,67,42
2.00,1025,13804,3572,-1644,32767,5596,32767,67,42
2.02,1026,-1096,13124,5680,32767,10692,32767,67,42
2.04,1028,-20944,24140,14156,32767,12998,32767,67,42
2.06,1012,-32768,25160,13564,32767,9710,32767,67,42
2.08,1020,-32768,25744,13028,32767,5679,32767,81,41
2.10,1015,-32768,19520,13764,32767,7937,30709,81,41
2.12,1021,-25132,14148,11776,32767,14712,26593,81,41
2.14,1024,-23624,11524,9852,32767,18842,25382,81,41
2.16,1017,-21360,11968,8368,32767,21128,24577,81,41
2.18,1018,-19668,14620,8216,32767,22251,20685,81,41
2.20,1029,-20568,15088,10304,32767,26938,15471,81,41
2.22,1009,-20004,12100,13768,32767,31526,13358,81,41
2.24,1024,-22196,11920,20032,32767,28336,12072,81,41
2.26,1031,-29816,4916,32767,20005,16309,17,81,41
2.28,1030,-32768,-936,32767,11295,15801,-5926,81,41
2.30,1014,-32768,5652,32767,8130,9403,-7501,81,41
2.32,1018,-32768,23012,32767,-50,-10833,-16070,81,41
2.34,1024,-32768,31008,32767,-9955,-28047,-24561,81,41
2.36,1022,-30332,30720,32767,-25327,-23315,-22136,81,41
2.38,1026,-32452,25960,32767,-32768,-10810,-17555,81,41
2.40,1029,-32768,23280,32767,-32768,-7490,-19378,81,41
2.42,1024,-32768,19124,23980,-32768,-11754,-24775,81,41
2.44,1029,-26724,14340,14196,-32768,-16677,-31294,81,41
2.46,1024,-21504,11240,8028,-32768,-19237,-32768,81,41
2.48,1016,-18712,10784,5532,-32768,-23493,-32768,81,41
2.50,1016,-17580,13576,4008,-32768,-25847,-32768,81,41
2.52,1020,-16860,15796,2596,-32768,-26475,-32768,81,41
2.54,1009,-18960,15880,3320,-32768,-26704,-32768,81,41
2.56,1021,-20760,16132,5000,-32768,-26702,-32768,81,41
2.58,1015,-20368,17528,6148,-32768,-25807,-32768,81,41
2.60,1017,-19784,18844,5996,-32768,-24839,-32768,81,41
2.62,1021,-13488,18808,5152,-30880,-24101,-32768,81,41
2.64,1011,-1636,17480,1952,-27814,-21439,-26189,81,41
2.66,1028,11612,15520,-4328,-25240,-18314,-17866,81,41
2.68,1021,27396,11600,-10108,-23764,-17525,-8232,81,41
2.70,1008,32468,5216,-7364,-15824,-7952,-5134,81,41
2.72,1014,32767,6436,-8808,454,-2986,-3152,81,41
2.74,1020,32767,9720,-10468,10741,-12047,4320,81,41
2.76,1014,32767,9464,-12344,20201,-11975,12857,81,41
2.78,1013,30428,9680,-13572,30871,-5832,22362,81,41
2.80,1017,10308,13600,-4596,32767,7920,32767,81,41
2.82,1026,-7588,21484,4360,32767,13939,32767,81,41
2.84,1012,-32768,31816,5332,32767,17229,32767,81,41
2.86,1009,-32768,32767,7748,32767,14969,32767,81,41
2.88,1025,-32768,32767,13520,32767,21595,32767,81,41
2.90,1017,-32768,29224,15844,32767,32022,32767,81,41
2.92,1024,-32768,20544,11168,32767,31248,29600,81,41
2.94,1031,-30020,15204,8652,32767,28114,25736,81,41
2.96,1030,-24004,11088,9308,32767,32496,22157,81,41
2.98,1028,-25868,10568,14052,32767,32767,17327,81,41
3.00,1012,-29696,10048,17812,32767,32767,14642,81,41
3.02,1020,-29792,3728,24876,31593,21672,9480,81,41
3.04,1016,-32768,-2960,32767,26545,10818,857,81,41
3.06,1024,-32768,-7332,32767,23110,1564,-8009,81,41
3.08,1024,-32768,-2996,32767,16763,-9503,-14720,81,41
3.10,1026,-32768,8880,32767,7984,-23542,-20833,81,41
3.12,1013,-32768,19872,32767,-742,-32511,-25941,81,41
3.14,1016,-31816,28984,32767,-13242,-24029,-25584,81,41
3.16,1026,-32768,30872,32767,-26395,-8476,-19398,81,41
3.18,1022,-32768,24752,32767,-32768,-4088,-18790,81,41
3.20,1015,-32768,19016,32767,-32768,-9300,-22569,81,41
3.22,1014,-32768,16060,26904,-31934,-13736,-26574,81,41
3.24,1013,-25380,10780,18108,-32768,-14266,-30762,81,41
3.26,1012,-17828,4428,11828,-32008,-14494,-32768,81,41
3.28,1015,-15956,2380,8480,-28050,-18368,-32768,81,41
3.30,1024,-16928,7200,4780,-24367,-24995,-32768,81,41
3.32,1021,-19024,11664,1876,-25032,-32768,-32768,81,41
3.34,1017,-20092,13280,2136,-27007,-32768,-32768,81,41
3.36,1013,-21048,14012,3460,-28954,-32768,-32768,81,41
3.38,1018,-22440,15008,4904,-30383,-32768,-32768,81,41
3.40,1014,-22044,16620,6116,-30278,-32768,-32481,81,41
3.42,1016,-13892,17212,5404,-29777,-26554,-28669,81,41
3.44,1018,-3908,14132,2136,-30733,-18238,-23438,81,41
3.46,1027,5832,9876,-2824,-26862,-15722,-15841,81,41
3.48,1028,17960,10156,-7020,-19342,-16946,-7672,81,41
3.50,1021,32767,10108,-12356,-13606,-8122,-3163,81,41
3.52,1029,32767,6088,-15712,-5752,2617,-1329,81,41
3.54,1027,32767,3636,-13872,8127,-2222,9369,81,41
3.56,1033,32767,5820,-10800,17759,-2054,20623,81,41
3.58,1030,32767,5780,-9276,25372,747,30712,81,41
3.60,1008,20632,6740,-7236,32767,4410,32767,81,41
3.62,1008,5884,12240,-3672,32767,9730,32767,81,41
3.64,1022,-11360,22156,740,32767,16251,32767,81,41
3.66,1024,-31264,28156,1100,32767,9254,32767,81,41
3.68,1029,-32768,30128,5660,32767,6290,32767,81,41
3.70,1014,-32768,27176,9100,32767,11218,32767,81,41
3.72,1013,-30580,20356,8228,32767,16979,32767,81,41
3.74,1016,-22240,15472,5596,32767,21182,28313,81,41
3.76,1018,-24724,16424,7248,32767,18633,24618,81,41
3.78,1007,-22976,16220,9764,32767,18548,20239,81,41
3.80,1023,-21308,14956,13312,32767,19049,16770,81,41
3.82,1019,-21716,12820,19996,32767,19772,13719,81,41
3.84,1011,-23960,8560,29720,25158,19837,9591,81,41
3.86,1032,-26824,3156,32767,18079,20228,4909,81,41
3.88,1024,-31604,-1452,32767,12538,16973,-1850,81,41
3.90,1025,-32768,-2092,32767,7672,3154,-6130,81,41
3.92,1024,-32768,4984,32767,4955,-19304,-9353,81,41
3.94,1014,-32768,12680,32767,-1197,-32768,-13056,81,41
3.96,1014,-32768,20752,32767,-11802,-31537,-14622,81,41
3.98,1019,-32768,24968,32767,-19818,-17796,-13646,81,41
4.00,1030,-32768,22336,32767,-30971,-8698,-15105,81,41
4.02,1016,-32768,13076,30268,-32768,-9532,-21533,81,41
4.04,1015,-28804,7856,21400,-32768,-13281,-27434,81,41
4.06,1009,-21896,6832,13552,-32409,-13580,-32768,81,41
4.08,1014,-18312,6836,6840,-31040,-15074,-32768,81,41
4.10,1018,-15852,7716,3340,-29267,-19520,-32768,81,41
4.12,1014,-17128,10040,2892,-28101,-24424,-32768,81,41
4.14,1017,-18144,12484,3020,-28211,-26228,-32768,81,41
4.16,1016,-18880,13584,3560,-30177,-27362,-32768,81,41
4.18,1009,-18184,13636,4712,-31895,-27996,-32768,81,41
4.20,994,-16640,14536,4940,-32557,-27986,-32768,81,41
4.22,996,-11552,15172,4960,-32234,-26067,-30532,81,41
4.24,1003,-1376,14556,3340,-30929,-18917,-23995,81,41
4.26,1007,6904,11408,56,-29491,-12988,-16588,81,41
4.28,1027,9904,8196,-1432,-24307,-12368,-8148,81,41
4.30,1036,14632,8724,-2608,-16176,-11279,-2355,81,41
4.32,1014,27000,10564,-6832,-7065,-3854,1161,81,41
4.34,1015,32767,11076,-12428,728,-787,3724,81,41
4.36,1014,32767,9412,-12104,9317,-2865,6111,81,41
4.38,1021,32767,10068,-7832,19722,-3173,12765,81,41
4.40,1013,32767,8324,-4100,27241,-1351,21063,81,41
4.42,1015,19700,9696,-1232,32767,-590,30985,81,41
4.44,1016,6040,16280,2928,32767,2952,32767,81,41
4.46,1018,-6724,25720,7792,32767,8433,32767,81,41
4.48,1014,-30976,32767,14980,32767,3475,32767,81,41
4.50,1017,-32768,32767,16136,32767,3921,32767,81,41
4.52,1018,-32768,32767,18004,32767,5400,32767,81,41
4.54,1010,-32768,26544,16276,32767,10637,32767,81,41
4.56,1036,-30036,20392,12740,32767,17678,29916,81,41
4.58,1016,-26008,17492,9556,32767,23296,29320,81,41
4.60,1034,-19940,19132,10772,32767,30771,28163,81,41
4.62,1022,-18384,20412,15744,32767,32767,25954,81,41
4.64,1024,-28848,19460,24444,32767,32767,22668,81,41
4.66,1021,-32768,13224,32767,22990,20829,19923,81,41
4.68,1016,-28060,-2960,32767,15504,11220,11949,81,41
4.70,1026,-27604,-9360,32767,17159,10875,763,81,41
4.72,1012,-31376,-2636,32767,7470,8994,-5046,81,41
4.74,1024,-32768,3712,32767,-1863,-10143,-13357,81,41
4.76,1014,-32768,15412,32767,-7532,-32768,-22559,81,41
4.78,1023,-32768,27300,32767,-11128,-32768,-28744,81,41
4.80,1015,-32768,32767,32767,-16080,-17061,-25951,81,41
4.82,1013,-32768,32767,32767,-30239,-2376,-24813,81,41
4.84,1017,-32768,28500,31408,-32768,-2108,-31483,81,41
4.86,1005,-26504,17696,23124,-32768,-8000,-32768,81,41
4.88,1015,-18336,13944,15908,-32768,-10768,-32768,81,41
4.90,1013,-12636,9472,10472,-32768,-12006,-32768,81,41
4.92,1032,-11700,7288,6712,-29621,-14195,-32768,81,41
4.94,1014,-13140,9432,5032,-26475,-17838,-32768,81,41
4.96,1016,-13400,12444,4080,-26190,-21196,-32768,81,41
4.98,1007,-15544,13704,4708,-27874,-23863,-32768,81,41
5.00,1015,-17712,14068,4996,-28896,-28020,-32768,86,31
5.02,1013,-17912,14596,5960,-29051,-32768,-32768,86,31
5.04,1025,-13556,15752,6544,-28940,-32768,-32768,86,31
5.06,1022,-6364,15672,6224,-29051,-27855,-30322,86,31
5.08,1026,908,13260,3132,-29334,-20290,-23819,86,31
5.10,1012,7048,9056,-256,-26079,-19995,-14952,86,31
5.12,1021,10588,8104,40,-19679,-23192,-7632,86,31
5.14,1015,18384,9256,-3240,-13421,-18815,-2491,86,31
5.16,1015,28144,8524,-9192,-6862,-8036,1769,86,31
5.18,1019,32767,10856,-19264,5761,-851,6933,86,31
5.20,1021,32767,16292,-20180,16357,-441,13054,86,31
5.22,1017,32767,13416,-12968,22331,3925,19406,86,31
5.24,1026,31192,7480,-6600,32767,5914,28869,86,31
5.26,1006,16896,11984,-2224,32767,7433,32767,86,31
5.28,1018,2400,21932,3072,32767,15106,32767,86,31
5.30,1024,-16148,32767,6824,32767,25377,32767,86,31
5.32,1013,-32768,32767,8448,32767,16678,32767,86,31
5.34,1010,-32768,32767,12764,32767,9944,32767,86,31
5.36,1011,-32768,30196,19308,32767,18459,32767,86,31
5.38,1010,-32768,23040,16328,32767,30847,32767,86,31
5.40,1014,-30932,19180,9256,32767,32767,32254,86,31
5.42,1015,-28192,17064,6240,32767,32767,31258,86,31
5.44,1024,-25648,15848,8816,32337,32767,31083,86,31
5.46,1021,-23700,14028,14080,28119,32767,29737,86,31
5.48,1024,-25208,9712,18984,20725,32767,28965,86,31
5.50,1018,-32768,2924,30328,11752,32767,25977,86,31
5.52,1015,-32768,-13868,32767,7184,18503,17928,86,31
5.54,1029,-32768,-27596,32767,16804,-11526,5227,86,31
5.56,1020,-32768,-10804,32767,14863,-32768,-5411,86,31
5.58,1012,-32768,380,32767,2006,-32768,-16281,86,31
5.60,1014,-32768,12920,32767,-6843,-32768,-21967,86,31
5.62,1011,-32768,28532,32767,-16001,-30864,-19261,86,31
5.64,1022,-32768,32767,32767,-26947,1596,-17762,86,31
5.66,1023,-32768,32767,32767,-32768,6868,-22577,86,31
5.68,1019,-32768,25316,28040,-32768,-8443,-31470,86,31
5.70,1020,-26496,17512,19616,-32768,-15501,-32768,86,31
5.72,1025,-18024,14164,12368,-32768,-15695,-32768,86,31
5.74,1030,-14428,11340,7508,-31137,-16289,-32768,86,31
5.76,1028,-13088,11324,4356,-28220,-17679,-32768,86,31
5.78,1019,-17148,13356,2604,-28166,-20932,-32768,86,31
5.80,1018,-14088,13668,2916,-27915,-24814,-32768,86,31
5.82,1016,-11728,13532,4324,-28826,-24756,-32768,86,31
5.84,1013,-12492,13564,4788,-28920,-22983,-32768,86,31
5.86,1017,-11992,13900,4744,-27763,-23805,-32768,86,31
5.88,1018,-10148,14520,4196,-26041,-23195,-32768,86,31
5.90,1021,-2324,13364,2876,-25645,-21707,-27390,86,31
5.92,1022,6596,10116,668,-25398,-22360,-17949,86,31
5.94,1022,11568,8464,1152,-22005,-24476,-7121,86,31
5.96,1029,26140,13444,-5564,-9711,-10339,7138,86,31
5.98,1020,30760,15256,-12296,-3190,276,9178,86,31
6.00,1028,30888,19132,-17160,5204,1536,11896,86,31
6.02,1012,32767,17088,-13784,7466,2021,13454,86,31
6.04,1029,32324,10160,-9208,14771,5753,16088,86,31
6.06,1011,25428,5656,-6780,26864,4973,24629,86,31
6.08,1021,14376,9872,-2228,32767,10597,32767,86,31
6.10,1025,3248,18904,3988,32767,17019,32767,86,31
6.12,1026,-17072,31000,12332,32767,17549,32767,86,31
6.14,1018,-32768,32767,15268,32767,15572,32767,86,31
6.16,1012,-32768,32767,16828,32767,4251,32767,86,31
6.18,1010,-32768,31064,18548,32767,2381,32767,86,31
6.20,1016,-29988,21456,16884,32767,17490,32022,86,31
6.22,1027,-25396,20172,12460,32767,32315,28676,86,31
6.24,1026,-25144,20864,7900,32767,32767,28859,86,31
6.26,1027,-23640,19888,10080,32767,32767,28298,86,31
6.28,1024,-26348,19380,19688,32767,32767,27039,86,31
6.30,1020,-32768,17108,31724,29319,27349,26258,86,31
6.32,1021,-32768,2648,32767,15642,16856,17679,86,31
6.34,1021,-32768,-13604,32767,15889,11867,4401,86,31
6.36,1017,-32768,-14300,32767,13062,4947,-3496,86,31
6.38,1021,-32768,-1816,32767,5138,-9368,-11977,86,31
6.40,1026,-32768,13244,32767,-6142,-29807,-21348,86,31
6.42,1027,-32768,26128,32767,-11320,-32768,-28413,86,31
6.44,1028,-32768,32767,32767,-18947,-20744,-27642,86,31
6.46,1014,-32768,32767,32767,-29934,-2540,-24777,86,31
6.48,1025,-32768,32767,32767,-32768,-2754,-30013,86,31
6.50,1009,-32768,26440,26540,-32768,-8404,-32768,86,31
6.52,1014,-25788,20420,17904,-32768,-11192,-32768,86,31
6.54,1026,-18060,14032,10712,-32768,-13168,-32768,86,31
6.56,1013,-11752,8796,6444,-32768,-14671,-32768,86,31
6.58,1016,-12264,8208,4216,-28113,-14977,-32768,86,31
6.60,1020,-13384,11708,2172,-25481,-17402,-32768,86,31
6.62,1015,-12844,12988,1912,-25733,-18794,-32768,86,31
6.64,1020,-13428,12176,2088,-26324,-20735,-32768,86,31
6.66,1019,-12924,11160,3476,-25240,-22960,-32768,86,31
6.68,1014,-11860,11340,4320,-23874,-23505,-32768,86,31
6.70,1021,-8340,11588,4292,-22559,-22137,-32768,86,31
6.72,1009,-2836,11492,4600,-20373,-22703,-26135,86,31
6.74,1008,4312,11920,4016,-17799,-28346,-15604,86,31
6.76,1025,10160,12544,4068,-15810,-32145,-5300,86,31
6.78,1020,16980,13240,1584,-12648,-25082,1635,86,31
6.80,1010,28736,11228,-5456,-9431,-14385,7616,86,31
6.82,1022,32420,8344,-9792,-3599,-10817,10425,86,31
6.84,1021,27600,12564,-13792,5601,-12415,11131,86,31
6.86,1008,32767,16644,-12200,11249,-14007,14718,86,31
6.88,1022,30224,12136,-6732,14969,-5863,17111,86,31
6.90,1020,19560,7108,-3888,26261,-3401,25274,86,31
6.92,1024,5440,8916,1136,32767,-1188,32767,86,31
6.94,1026,-6192,16356,9708,32767,4529,32767,86,31
6.96,1027,-21592,25912,20180,32767,7735,32767,86,31
6.98,1011,-32272,32767,19776,32767,12434,32767,86,31
7.00,1017,-32768,30640,15560,32767,10469,32767,86,31
7.02,1014,-30928,23688,12992,32767,13168,32767,86,31
7.04,1026,-26200,21608,11428,32767,20211,32767,86,31
7.06,1008,-23580,21564,11288,32767,25345,32767,86,31
7.08,1022,-20940,21408,12684,32767,26179,32767,86,31
7.10,1012,-22856,22752,16640,32767,25720,30102,86,31
7.12,1025,-32768,22828,21296,32767,12367,23593,86,31
7.14,1015,-31620,13668,28756,29665,-867,14094,86,31
7.16,1015,-20784,2856,32767,23891,-5091,3634,86,31
7.18,1019,-17812,-4544,32767,17327,-10697,-4261,86,31
7.20,1011,-12036,-4288,32767,10276,-21086,-7644,86,31
7.22,1024,-4492,6220,32767,4642,-30120,-10489,86,31
7.24,1017,-244,18084,32767,-5576,-32768,-12098,86,31
7.26,1026,1032,27328,32767,-18374,-29961,-8929,86,31
7.28,1015,-6628,32767,32767,-27441,-9177,-7838,86,31
7.30,1023,-18116,32767,32767,-32768,8838,-9077,86,31
7.32,1024,-25844,32767,32767,-32768,10409,-11950,86,31
7.34,1028,-24448,23224,32767,-32768,5108,-20151,86,31
7.36,1015,-20536,18276,26968,-32768,754,-26893,86,31
7.38,1018,-16968,13704,18412,-32768,-790,-32323,86,31
7.40,1021,-15012,10684,12100,-32768,-1843,-32768,86,31
7.42,1015,-16804,14080,11576,-32768,-6570,-32768,86,31
7.44,1022,-20056,19084,9660,-32768,-14529,-32768,86,31
7.46,1020,-15700,21120,3140,-32768,-19300,-32768,86,31
7.48,1018,-12216,20120,-3028,-32768,-21668,-32768,86,31
7.50,1016,-11568,16836,-2532,-32768,-19891,-32768,86,31
7.52,1024,-6568,12608,1172,-32768,-9627,-32768,86,31
7.54,1009,-8400,11684,4980,-32768,-2594,-28625,86,31
7.56,1021,-8392,12300,5580,-32768,-3097,-24797,86,31
7.58,1017,4496,9388,1584,-28293,-3134,-18569,86,31
7.60,1039,11304,7604,-1156,-20345,-4156,-12061,86,31
7.62,1009,15944,11232,-1800,-8594,-7033,-9027,86,31
7.64,1013,27996,14328,-3240,-1708,-2799,-9373,86,31
7.66,1028,32767,10780,-6296,4596,908,-7380,86,31
7.68,1012,32767,11276,-6352,17450,-6378,1955,86,31
7.70,1018,32767,12580,-9412,24011,-8677,11841,86,31
7.72,1017,32767,8148,-6816,31073,-8998,22124,86,31
7.74,1022,21440,8568,-2192,32767,-4234,32767,86,31
7.76,1015,6888,15180,4356,32767,2554,32767,86,31
7.78,1018,-6612,23736,7200,32767,9326,32767,86,31
7.80,1018,-20880,27616,9760,32767,14216,32767,86,31
7.82,1014,-32768,32767,7664,32767,4704,32767,86,31
7.84,993,-32768,32767,12808,32767,-5644,32767,86,31
7.86,1020,-31404,24468,17552,32767,5976,32767,86,31
7.88,1005,-25820,23040,12324,32767,21450,32767,86,31
7.90,1029,-24016,22080,8552,32767,32767,28804,86,31
7.92,1020,-23592,20408,6060,32767,32767,27237,86,31
7.94,1013,-25112,19200,10016,32767,24889,26070,86,31
7.96,1003,-21116,18772,20920,32767,20128,21576,86,31
7.98,1009,-21032,17988,28760,32767,17946,17303,91,26
8.00,1014,-28688,13864,32767,31954,14854,9106,91,26
8.02,1031,-30576,13300,32767,22323,16755,181,91,26
8.04,1027,-31504,14924,32767,12087,20037,-3384,91,26
8.06,1018,-32768,13784,32767,5196,8940,-5933,91,26
8.08,1026,-32768,20932,32767,-5850,-15379,-16136,91,26
8.10,1012,-32768,26664,32767,-21347,-29600,-26846,91,26
8.12,1022,-32768,32767,32767,-30627,-20906,-29389,91,26
8.14,1015,-32768,32767,32767,-32768,-6035,-26041,91,26
8.16,1029,-32768,24804,32767,-32768,359,-31485,91,26
8.18,1011,-32768,18844,22304,-32768,-5374,-32768,91,26
8.20,1017,-24824,16752,13300,-32768,-13972,-32768,91,26
8.22,1016,-20884,14500,7672,-32768,-20795,-32768,91,26
8.24,1020,-18964,14276,5476,-32768,-25429,-32768,91,26
8.26,1024,-17724,17468,3428,-32768,-26575,-32768,91,26
8.28,1020,-21056,19844,2160,-32768,-29834,-32768,91,26
8.30,1012,-22036,19496,3624,-32768,-29539,-32768,91,26
8.32,1018,-19676,18864,4828,-32768,-23624,-32768,91,26
8.34,1014,-18056,18812,5148,-32768,-16287,-32768,91,26
8.36,1022,-15000,16916,4792,-32079,-9315,-32768,91,26
8.38,1029,-11280,15020,4156,-27548,-8733,-32768,91,26
8.40,1008,-5256,14540,3280,-23397,-17399,-27161,91,26
8.42,1016,3552,13948,4112,-20666,-24665,-19626,91,26
8.44,1006,12632,14120,232,-19002,-21610,-12395,91,26
8.46,1020,24824,12528,-5612,-14946,-14733,-6034,91,26
8.48,1014,32767,12068,-10296,-6685,-7139,-3682,91,26
8.50,1019,32767,13896,-17624,752,-8854,653,91,26
8.52,1028,32767,12304,-17664,7068,-10352,7522,91,26
8.54,1023,32767,9220,-15028,15986,-3473,15064,91,26
8.56,1014,32767,7088,-10756,25919,1240,24443,91,26
8.58,1029,18100,10376,-4348,32767,2486,31987,91,26
8.60,1025,1240,17476,1712,32767,5937,32767,91,26
8.62,1031,-16580,24232,6920,32767,9117,32767,91,26
8.64,1030,-32768,29412,12616,32767,6758,32767,91,26
8.66,1017,-32768,32767,15972,32767,17064,32767,91,26
8.68,1014,-32768,27652,16496,32767,22165,32767,91,26
8.70,1030,-32768,20464,14692,32767,25960,32767,91,26
8.72,1027,-26064,16588,9168,32767,29402,31595,91,26
8.74,1024,-20840,14660,4704,32767,31890,29975,91,26
8.76,1008,-26416,16708,4368,32767,32767,26853,91,26
8.78,1017,-26464,15952,3912,32767,32767,26184,91,26
8.80,1025,-32144,16868,7512,32767,32767,28430,91,26
8.82,1026,-32768,16780,17560,32501,32767,25465,91,26
8.84,1026,-32768,5292,26856,24538,24982,17922,91,26
8.86,1021,-32768,-10252,32260,26418,19972,5483,91,26
8.88,1015,-32768,-16972,31332,32767,13738,-1617,91,26
8.90,1028,-32768,1028,32767,32767,2386,-9792,91,26
8.92,1026,-32768,20584,32767,32767,-22738,-19077,91,26
8.94,1030,-32768,32767,30200,32767,-32768,-30826,91,26
8.96,1012,-32768,32767,27216,32767,-32768,-32336,91,26
8.98,1029,-32768,32767,15428,24263,-32768,-28812,91,26
9.00,1029,-7060,32767,13208,3142,-32768,-26332,91,26
9.02,1018,15676,16072,11252,-3902,-2885,-18216,91,26
9.04,1031,15992,8088,7304,-2695,18790,-9807,91,26
9.06,1007,5956,8188,4280,-1173,14900,-6079,91,26
9.08,1014,4792,6548,4060,-851,-1872,-6444,91,26
9.10,1016,10496,5624,4020,120,-14946,-3068,91,26
9.12,1014,9384,6696,3556,-899,-17421,922,91,26
9.14,1028,5484,6860,4656,-2422,-13876,5206,91,26
9.16,1018,2264,7068,6308,-3468,-7159,8504,91,26
9.18,1015,-4420,7676,8304,-6297,-4213,9821,91,26
9.20,1008,-5680,5740,8436,-8139,-2800,9643,91,26
9.22,1020,-5608,4528,8660,-7629,-2170,7568,91,26
9.24,1017,-8960,5740,10452,-7602,-2368,6286,91,26
9.26,1026,-12460,5600,13544,-8357,-1227,5353,91,26
9.28,1033,-17648,2960,18292,-9373,704,6148,91,26
9.30,1024,-27144,-1460,23796,-9743,2832,8882,91,26
9.32,1012,-31224,-1468,29784,-9706,6723,8366,91,26
9.34,1019,-32768,-1392,32532,-10947,8628,4205,91,26
9.36,1030,-32768,-248,30200,-12577,9201,-2001,91,26
9.38,1024,-32768,92,27216,-13509,6951,-9500,91,26
9.40,1001,-30428,-2236,26340,-12355,2283,-15475,91,26
9.42,1017,-21060,-2472,25052,-11646,1239,-18386,91,26
9.44,1018,-11808,-2384,21692,-11831,3236,-20339,91,26
9.46,1021,-6672,-2096,17856,-12224,4599,-22741,91,26
9.48,1009,-3124,-1268,13460,-11262,5617,-26070,91,26
9.50,1023,-1036,-544,11020,-9276,4350,-29329,91,26
9.52,1025,-1100,1264,10672,-6059,3431,-32459,91,26
9.54,1029,-1884,3932,9348,-2629,3199,-32768,91,26
9.56,1016,260,4736,7276,448,4146,-32768,91,26
9.58,1027,2216,4976,5420,2383,7635,-32768,91,26
9.60,1019,316,5536,3172,3601,7781,-25715,91,26
9.62,1028,-3976,5196,1564,3932,1985,-15628,91,26
9.64,1016,-4956,3824,-548,4478,-3719,-3468,91,26
9.66,1018,-6340,3316,-672,6426,-9418,10517,91,26
9.68,1026,-5088,2688,920,10161,-12449,26122,91,26
9.70,1030,-10132,768,7600,17423,-12347,32767,91,26
9.72,1010,-15700,4792,13144,27322,-8869,32767,91,26
9.74,1015,-15872,10088,17684,32767,-6824,32767,91,26
9.76,1012,-16908,13800,20636,32767,-2351,32767,91,26
9.78,1016,-13672,15584,18956,32767,4691,32767,91,26
9.80,1012,-15152,20648,19844,32767,5983,32767,91,26
9.82,1028,-15248,21648,20924,32303,1975,32767,91,26
9.84,1015,-26060,20948,27448,22677,-8691,29682,91,26
9.86,1024,-21952,13788,27040,14200,-17608,18431,91,26
9.88,1014,-4108,2860,16444,14723,-12987,10430,91,26
9.90,1014,2436,3176,12316,13545,-3094,5657,91,26
9.92,1027,-5892,4272,13168,5700,8556,2539,91,26
9.94,1017,-18424,4160,16080,-720,7621,65,91,26
9.96,1024,-21700,932,20948,-4526,-2731,-425,91,26
9.98,1031,-23220,-16,25036,-6586,-12807,1273,91,26
10.00,1031,-25016,7108,24572,-10096,-17604,4202,91,26
10.02,1030,-21964,11236,22968,-14134,-17169,4594,91,26
10.04,1017,-21048,14912,25764,-18735,-15529,3156,91,26
10.06,1006,-19724,15164,30932,-22077,-8179,-822,91,26
10.08,1020,-13252,17680,32767,-20355,7981,-6373,91,26
10.10,1020,-12112,20824,31724,-22846,25104,-13870,91,26
10.12,1011,-7460,12760,21980,-23303,32767,-22876,91,26
10.14,1030,-7528,11064,17472,-18038,32767,-30862,91,26
10.16,1010,-11444,12404,15256,-13224,24540,-32768,91,26
10.18,1010,-10484,13844,13560,-7628,5315,-32768,91,26
10.20,1018,-6452,17136,14932,-5573,-15157,-32768,91,26
10.22,1024,2156,19356,15416,-7877,-26505,-32768,91,26
10.24,1024,4728,21068,11812,-11031,-25395,-32768,91,26
10.26,1024,4772,19176,6540,-13942,-21340,-32768,91,26
10.28,1018,6340,12716,3600,-12849,-15251,-31010,91,26
10.30,1020,3532,6400,772,-7420,-3769,-15418,91,26
10.32,1022,-4052,1956,-692,250,5222,-885,91,26
10.34,1023,-6276,-1248,-1384,9018,9348,14359,91,26
10.36,1018,-7176,-1116,3804,20954,5637,30074,91,26
10.38,1017,-15312,11396,14432,32767,-4205,32767,91,26
10.40,1026,-17880,13944,25808,32767,-5519,32767,91,26
10.42,1020,-23596,10736,32767,32767,-8160,32767,91,26
10.44,1021,-21976,1964,32767,27167,-4711,32767,91,26
10.46,1009,6288,-1820,15232,32052,-1783,32767,91,26
10.48,1027,-17704,20024,18596,30960,-9958,22454,91,26
10.50,1034,-3936,22800,15964,24314,-9884,12415,91,26
10.52,1026,-1152,11832,14572,8407,-65,5797,91,26
10.54,1030,-2476,4392,12808,4188,2417,3057,91,26
10.56,1022,-6180,4640,12640,1051,336,890,91,26
10.58,1008,-7184,120,16292,-2013,-2408,1462,91,26
10.60,1024,-10652,-6388,23512,-2114,-3771,3479,91,26
10.62,1025,-11844,-7800,26756,2611,-4506,6315,91,26
10.64,1009,-18144,608,32767,858,-5675,6061,91,26
10.66,1016,-15064,5184,32767,-2889,1001,3257,91,26
10.68,1016,-13948,10072,32767,-7828,11826,-1758,91,26
10.70,1015,-17040,10836,30756,-14593,22406,-8124,91,26
10.72,1018,-22420,9236,27508,-16326,24675,-15248,91,26
10.74,1026,-20560,10516,24472,-13681,23619,-21825,91,26
10.76,993,-12384,11840,20404,-11548,27832,-29983,91,26
10.78,1038,-7856,11164,16728,-10196,32767,-32768,91,26
10.80,1033,-12024,10572,17672,-7344,30559,-32768,91,26
10.82,1019,-13796,12832,18016,386,15078,-32768,91,26
10.84,1022,-7168,17904,15864,6252,-2665,-32768,91,26
10.86,1021,-2176,20612,13212,3810,-12298,-32768,91,26
10.88,1031,-2860,19744,9396,-982,-18804,-32768,91,26
10.90,1027,-4284,17424,3664,-2444,-23833,-28017,91,26
10.92,1008,-2688,13912,140,-3878,-25459,-12439,91,26
10.94,1018,-1212,8220,-596,-2877,-15173,5949,91,26
10.96,1027,-716,3124,-608,1606,5721,20137,91,26
10.98,1025,-7304,3416,816,8790,15170,32767,98,26
11.00,1011,-12024,9216,3376,14628,7063,32767,98,26
11.02,1024,-12052,12144,9656,19197,711,32767,98,26
11.04,1013,-11400,13348,15580,20412,-2050,32767,98,26
11.06,1022,-15892,15104,19820,20448,-6069,32767,98,26
11.08,1030,-19064,15744,21892,18031,-6544,32767,98,26
11.10,1012,-7068,11024,15848,15720,1777,32767,98,26
11.12,1015,-13064,15180,14484,14437,3055,24946,98,26
11.14,1024,-18532,16540,16972,10062,3763,13905,98,26
11.16,1028,-20192,10452,21772,4064,1224,6948,98,26
11.18,1016,-16548,3572,26016,2674,722,6559,98,26
11.20,1024,-17600,-3012,27824,1110,1370,8767,98,26
11.22,1029,-22844,-2992,27724,2054,4072,8370,98,26
11.24,1029,-24676,416,26184,584,4427,3196,98,26
11.26,1026,-25208,1132,25700,-2239,4361,-3708,98,26
11.28,1017,-29316,3472,24152,-4380,-75,-10863,98,26
11.30,1025,-25920,6804,24200,-5502,-6463,-18263,98,26
11.32,1012,-16544,8620,24252,-8325,-5752,-23966,98,26
11.34,1011,-11184,9344,21836,-11493,1856,-28313,98,26
11.36,1009,-9976,9056,17852,-14507,7622,-31612,98,26
11.38,1023,-11600,10004,16456,-15351,7249,-32768,98,26
11.40,1028,-9908,12240,14728,-15127,3375,-32768,98,26
11.42,997,-8884,14504,13816,-16451,-1937,-32768,98,26
11.44,1015,-10420,17620,14240,-15812,-8572,-32768,98,26
11.46,1013,-8792,22228,13176,-12871,-16401,-32768,98,26
11.48,1025,-6428,23476,10948,-13343,-21267,-29046,98,26
11.50,1010,-7188,23232,9524,-13053,-17823,-11478,98,26
11.52,1020,-3848,20880,5660,-12244,-5373,2336,98,26
11.54,1015,-2584,11612,3356,-8077,7750,15099,98,26
11.56,1024,-5364,6980,2744,1322,10035,25333,98,26
11.58,1021,-5320,5760,3896,10071,2339,32767,98,26
11.60,1015,-3920,7488,7816,18784,-3904,32767,98,26
11.62,1015,-12304,12612,14932,23524,-7723,32767,98,26
11.64,1015,-17144,13192,21348,24159,-8939,32767,98,26
11.66,1009,-13256,7636,22276,21113,-3501,32767,98,26
11.68,1006,-5708,668,18076,18793,8268,32767,98,26
11.70,1007,-1964,2472,12304,22839,13419,32767,98,26
11.72,1016,-17652,14240,12212,23766,8548,24118,98,26
11.74,1004,-19844,16896,14392,17176,2388,18387,98,26
11.76,1029,-24120,11156,17840,7248,-2024,13948,98,26
11.78,1012,-26352,7600,22220,2798,-8854,12167,98,26
11.80,1028,-23892,7340,27264,1027,-9241,9085,98,26
11.82,1023,-22960,4328,30932,-4295,-6018,3696,98,26
11.84,1013,-20708,2280,29628,-3808,-1427,-2446,98,26
11.86,1006,-22376,3392,27296,-6254,2665,-7810,98,26
11.88,1017,-22100,4676,24820,-8534,1655,-13144,98,26
11.90,1021,-17948,5712,22692,-10134,875,-18668,98,26
11.92,1024,-11940,6312,19620,-11975,6404,-24159,98,26
11.94,1010,-10388,5768,16272,-14975,10391,-28921,98,26
11.96,1020,-8968,5508,14116,-15150,10386,-32768,98,26
11.98,1027,-7492,5744,13412,-13945,10813,-32768,98,26
12.00,1006,-5624,6416,12160,-12346,13555,-32768,98,26
12.02,1024,-9108,6472,10944,-10655,13104,-32768,98,26
12.04,1011,-17424,9780,15668,-6188,202,-32768,98,26
12.06,1022,-13472,16212,18688,2557,-16404,-32768,98,26
12.08,1025,-19996,21012,16868,-313,-28553,-24490,98,26
12.10,1013,-14424,24724,12360,-4303,-24974,-8084,98,26
12.12,1011,-4536,21184,6100,-9766,-6173,4738,98,26
12.14,1016,-1920,9824,420,-7928,16119,15568,98,26
12.16,1025,-6648,7496,-1116,1645,20640,22948,98,26
12.18,1009,-7432,7480,2488,5924,7655,31021,98,26
12.20,1011,-1296,6700,7928,10953,-227,32767,98,26
12.22,1015,-3772,9604,12244,14113,-2918,32767,98,26
12.24,1010,-11380,12480,15744,16133,-5254,32767,98,26
12.26,1011,-11836,10668,15808,14626,-7352,32767,98,26
12.28,1017,-9100,6636,13600,13926,-5421,31944,98,26
12.30,1024,-16696,8264,20904,13452,-6019,25722,98,26
12.32,1022,-21956,10128,26964,10829,-6806,20315,98,26
12.34,1011,-19512,6416,29012,8487,-8138,19318,98,26
12.36,1017,-18044,2516,24844,8066,-4204,18196,98,26
12.38,1012,-21596,1892,23004,6636,1809,14804,98,26
12.40,1017,-23780,-2652,22448,3037,4907,11667,98,26
12.42,1014,-29320,-5532,24792,358,4128,4296,98,26
12.44,1008,-26464,-4500,26660,-368,1196,-4159,98,26
12.46,1016,-25024,-168,27440,-2410,1453,-13401,98,26
12.48,1021,-25708,3468,25056,-5464,2581,-21282,98,26
12.50,1018,-21544,6236,18896,-5877,6958,-30254,98,26
12.52,1012,-16816,10180,17520,-10108,7231,-32768,98,26
12.54,1018,-15968,12824,19420,-13293,3616,-32768,98,26
12.56,1024,-12736,15232,17972,-13356,-4697,-32768,98,26
12.58,1009,-11372,19280,18108,-12393,-14100,-32768,98,26
12.60,1026,-5276,23804,15020,-9477,-20675,-32768,98,26
12.62,1018,-3528,29060,9692,-9517,-21080,-32768,98,26
12.64,1015,-5232,32356,3788,-13171,-13107,-13554,98,26
12.66,1014,-2904,24432,-4376,-15003,-55,2815,98,26
12.68,1018,4088,10472,-7520,266,12666,19277,98,26
12.70,1016,1128,12768,-1980,16202,11690,31868,98,26
12.72,1029,-2400,15176,6344,23824,-1395,32767,98,26
12.74,1024,-6568,17200,14556,31595,-8369,32767,98,26
12.76,1023,-21172,18984,22232,32767,-13611,32767,98,26
12.78,1027,-26212,17812,27652,29064,-15293,32767,98,26
12.80,1008,-796,6172,16956,27971,-966,32767,98,26
12.82,1024,-21456,20836,18672,32767,1783,32023,98,26
12.84,1019,-27912,26156,24516,17742,-4834,17060,98,26
12.86,1020,-21724,5028,31704,1576,-3036,11201,98,26
12.88,1026,-21796,-8480,32767,-1139,6519,11787,98,26
12.90,1025,-24680,-12032,29500,-3662,10066,9370,98,26
12.92,1017,-23368,-11296,23696,-5672,10041,1662,98,26
12.94,1026,-22664,-6312,21948,-7143,10790,-8765,98,26
12.96,1026,-26764,596,22984,-10494,10171,-19453,98,26
12.98,1026,-24376,4980,22980,-12336,5627,-28565,98,26
13.00,1015,-15288,8528,20772,-13752,2154,-32768,98,26
13.02,1021,-10876,12612,19460,-15613,846,-32768,98,26
13.04,1025,-9388,17828,16864,-15307,-2437,-32768,98,26
13.06,1010,-8632,24368,16204,-12243,-11960,-32768,98,26
13.08,1032,-3352,29120,12292,-7069,-21466,-32768,98,26
13.10,1015,-2616,32767,9292,-8442,-24555,-25673,98,26
13.12,1026,-5652,32767,6188,-10896,-15333,-8640,98,26
13.14,1013,2692,23036,-852,-4546,5260,7799,98,26
13.16,1012,2996,15884,-2508,11819,16253,22137,98,26
13.18,1012,276,15268,2448,19829,4408,32767,98,26
13.20,1032,-1608,16228,9680,28322,-7427,32767,98,26
13.22,1012,-16280,20924,18728,31217,-12585,32767,98,26
13.24,1014,-10844,14312,15836,27205,-6378,32767,98,26
13.26,1037,-1040,9012,13340,27149,3748,32767,98,26
13.28,1027,-32768,24736,26976,25365,-107,28373,98,26
13.30,1012,-30028,21660,32767,9946,-9237,17154,98,26
13.32,1017,-18056,5248,32767,-1218,2483,14401,98,26
13.34,1034,-18388,-11744,29368,-6922,14708,14420,98,26
13.36,1008,-23260,-27020,25616,-5815,15006,12340,98,26
13.38,1023,-19432,-17704,24284,-1929,10935,-191,98,26
13.40,1016,-24816,-4544,24828,-6505,12930,-14237,98,26
13.42,1019,-28008,2920,23684,-10182,7544,-25814,98,26
13.44,1009,-20808,6544,23124,-14525,2326,-32768,98,26
13.46,1012,-12088,10052,24512,-17829,-332,-32768,98,26
13.48,1019,-9772,16208,25420,-19543,-3314,-32768,98,26
13.50,1015,-7184,22344,23008,-16941,-9663,-32768,98,26
13.52,1021,-6124,28468,17776,-8801,-15598,-32768,98,26
13.54,1027,-3520,32767,10712,-5262,-17784,-32768,98,26
13.56,1015,-3796,32767,8220,-10717,-13062,-21962,98,26
13.58,1016,-6940,29848,-1764,-12930,-1071,-9962,98,26
13.60,1015,-7512,15892,-8176,-3376,6199,2684,98,26
13.62,1009,1084,11656,-7020,13400,7426,16947,98,26
13.64,1014,2548,13108,3360,23102,7438,32309,98,26
13.66,1026,-4012,16784,12168,30945,2105,32767,98,26
13.68,1025,-14028,19224,21660,31036,-3461,32767,98,26
13.70,1026,-19588,17544,19776,26391,-8654,32767,98,26
13.72,1009,-18192,11440,15812,23463,-12662,32767,98,26
13.74,1020,-4188,11364,17280,26877,-11121,30653,98,26
13.76,1010,-16600,21032,23720,25360,-634,18550,98,26
13.78,1018,-20672,17808,29232,7370,-354,9303,98,26
13.80,1014,-13148,3784,32767,-588,1617,9083,98,26
13.82,1007,-11288,-4488,32440,-4659,13003,6328,98,26
13.84,1022,-13856,-12372,25404,-7191,19660,4451,98,26
13.86,1010,-20140,-13804,27208,-8269,14970,-1135,98,26
13.88,1015,-23028,-6892,26580,-8847,7231,-8811,98,26
13.90,1016,-21240,-380,25616,-12921,4283,-17447,98,26
13.92,1014,-17544,1732,19604,-14872,7394,-26349,98,26
13.94,1026,-19716,6424,16836,-18249,10126,-32768,98,26
13.96,1029,-14424,9452,19612,-17829,3391,-32768,93,26
13.98,1017,-12656,17220,21560,-16532,-4174,-32768,93,26
14.00,1015,-10596,23500,18212,-13890,-13109,-32768,93,26
14.02,1014,-7620,29316,13500,-7882,-17532,-32768,93,26
14.04,1017,-4596,32767,9712,-9404,-18557,-22129,93,26
14.06,1020,-1364,32767,7436,-14905,-6381,-6954,93,26
14.08,1016,-1192,21856,1476,-10026,8805,6606,93,26
14.10,1019,-728,14704,-4160,3456,13901,19204,93,26
14.12,1038,-812,14816,-2616,12837,9656,28364,93,26
14.14,1015,-1352,12948,2836,19315,5622,32767,93,26
14.16,1014,-10060,15972,13124,30061,875,32767,93,26
14.18,1024,-15640,19792,20236,31924,-1976,32767,93,26
14.20,1010,-16548,16964,21560,26539,-1966,32767,93,26
14.22,1015,-4276,7624,10336,23425,4260,30755,93,26
14.24,1023,-13196,12944,17140,25712,-929,23874,93,26
14.26,1017,-32768,21252,27292,21688,-9253,11094,93,26
14.28,1020,-15276,16152,32767,11046,-10814,7789,93,26
14.30,1026,-10840,8024,32767,1750,-599,8665,93,26
14.32,1018,-15892,3716,26900,-6608,13101,7290,93,26
14.34,1022,-18068,-7452,22068,-11233,20568,7046,93,26
14.36,1019,-22652,-11660,20908,-11048,19444,1581,93,26
14.38,1007,-29688,-5252,19964,-10652,9078,-5794,93,26
14.40,1021,-26416,796,20488,-11216,315,-14341,93,26
14.42,1023,-17760,3588,19380,-14680,1627,-22491,93,26
14.44,1028,-13552,5720,19464,-18229,4059,-30189,93,26
14.46,1009,-16056,9444,19128,-19656,1739,-32768,93,26
14.48,1018,-13392,15780,17492,-17394,-8765,-32768,93,26
14.50,1022,-11580,25108,20188,-15627,-21676,-32768,93,26
14.52,1025,-4784,32767,20772,-13400,-28993,-32768,93,26
14.54,1026,2088,32767,15700,-18650,-27207,-28624,93,26
14.56,1012,-1936,32767,10196,-22562,-13173,-13496,93,26
14.58,1019,-8696,25816,1004,-15195,-1243,-696,93,26
14.60,1017,-5708,16840,-2276,-189,6689,9194,93,26
14.62,1018,-216,13616,-1348,11398,9911,18222,93,26
14.64,1018,-664,9500,3324,17097,7463,27504,93,26
14.66,1015,-5888,10976,11344,26923,-745,32767,93,26
14.68,1015,-13300,16104,19312,31982,-5968,32767,93,26
14.70,1007,-10484,14588,15384,30276,-1389,28266,93,26
14.72,1004,-12792,12116,11792,27145,-3038,24261,93,26
14.74,1016,-18704,14920,25756,26492,-5234,13823,93,26
14.76,1016,-16368,13016,32767,21520,-3241,9068,93,26
14.78,1014,-13616,4368,32767,13198,178,8794,93,26
14.80,1023,-11728,-3300,26724,8427,4284,7027,93,26
14.82,1024,-14444,-6408,24232,4567,7628,3186,93,26
14.84,1020,-16472,-10340,26660,-404,12504,-2719,93,26
14.86,1015,-23084,-10000,31276,-4567,11643,-7830,93,26
14.88,1029,-24772,-5912,31284,-7942,4041,-12732,93,26
14.90,1022,-19588,-1348,28252,-12560,-247,-18228,93,26
14.92,1030,-16716,2296,20928,-16699,1342,-23566,93,26
14.94,1024,-17936,6160,19640,-19204,2443,-29744,93,26
14.96,1000,-14924,10344,19952,-21075,1766,-32768,93,26
14.98,1014,-13032,15048,18228,-21993,-2432,-32768,93,26
15.00,1016,-15752,21008,16544,-19863,-10695,-32768,93,26
15.02,1012,-15004,27524,16004,-12589,-17916,-32768,93,26
15.04,1030,-7532,32767,10064,-8992,-16664,-21860,93,26
15.06,1016,-4432,32767,2296,-15861,-3212,-4422,93,26
15.08,1023,-2444,24684,-4056,-13820,13397,7276,93,26
15.10,1002,-1160,13904,-4876,1877,20980,17662,93,26
15.12,1013,-2992,13192,-2452,11741,13965,27135,93,26
15.14,1028,-3428,11416,2556,19268,2477,32767,93,26
15.16,1005,-8132,14364,11620,30044,-3417,32767,93,26
15.18,1024,-13360,18916,19020,32767,-3868,32767,93,26
15.20,1023,-8324,18328,12856,28888,4131,32767,93,26
15.22,1012,-22908,19240,16356,22078,1340,31082,93,26
15.24,1024,-29204,20056,25504,15222,-1805,18643,93,26
15.26,1020,-16908,10040,25048,8058,2935,12261,93,26
15.28,1018,-13600,3092,23268,5680,7078,11502,93,26
15.30,1008,-16768,-988,21836,4682,5805,10396,93,26
15.32,1022,-18720,-2964,21008,3975,2116,8288,93,26
15.34,1026,-16864,-3148,18640,3065,3093,6013,93,26
15.36,1020,-20596,-3768,21432,-1269,9203,1219,93,26
15.38,1022,-24308,-5460,22500,-3707,13122,-3837,93,26
15.40,1021,-25272,-3508,20900,-4119,5555,-10396,93,26
15.42,1034,-27836,1992,21212,-5808,-2858,-18613,93,26
15.44,1024,-22264,5388,19680,-7387,-5168,-25576,93,26
15.46,1019,-13704,7360,17492,-10142,-45,-30991,93,26
15.48,1007,-10216,7924,14760,-13599,5820,-32768,93,26
15.50,1032,-11364,9108,14076,-12734,1369,-32768,93,26
15.52,1031,-9620,13776,12304,-7640,-9948,-32768,93,26
15.54,1024,-8404,22172,13056,1025,-22129,-32768,93,26
15.56,1024,-5020,32767,12400,17539,-26821,-25415,93,26
15.58,1016,-344,32767,4448,10688,-25277,-5938,93,26
15.60,1018,-3048,32767,4756,-4727,-13290,6957,93,26
15.62,1021,-272,32552,5652,3494,4918,18845,93,26
15.64,1009,-10368,27324,3836,14465,9049,32198,93,26
15.66,1018,-22280,24316,8012,15051,-2792,32767,93,26
15.68,1020,-27220,18780,11412,15237,-4287,32767,93,26
15.70,1013,-25572,11004,8192,15654,5892,32767,93,26
15.72,1033,-19956,3184,-68,14807,16573,32767,93,26
15.74,1014,-17084,-6188,-460,19702,21629,32767,93,26
15.76,1024,-21504,-5568,6944,22227,28335,30709,93,26
15.78,1021,-28928,-6624,15660,13391,22333,23645,93,26
15.80,1015,-25172,-16264,20688,11052,10518,14386,93,26
15.82,1024,-21352,-18316,20236,5930,4721,2876,93,26
15.84,1012,-21984,-18924,21164,-2140,5201,-8886,93,26
15.86,1021,-22416,-14540,22856,-8158,3186,-17571,93,26
15.88,1018,-24688,-6444,25904,-13810,-2359,-26168,93,26
15.90,1019,-29960,2056,28552,-17602,-8412,-32768,93,26
15.92,1006,-32768,10868,32767,-20693,-15933,-32768,93,26
15.94,1014,-32768,20500,32767,-20745,-24871,-32768,93,26
15.96,1032,-32768,32767,32767,-10052,-32768,-32768,93,26
15.98,1031,-32768,32767,32767,5960,-32768,-32768,93,26
16.00,1030,-32768,32767,32767,-32768,-32768,-32768,93,26
16.02,1009,-26280,32767,32767,-32768,-32768,-32768,93,26
16.04,1016,-17036,30260,32767,-32768,-32768,-30656,93,26
16.06,1015,-12044,24328,26544,-32768,-32768,-23995,93,26
16.08,1027,-5608,13792,20308,-32768,-30759,-18501,93,26
16.10,1010,-1972,4184,15716,-32768,-24577,-15336,93,26
16.12,1019,-2888,2232,12068,-29647,-21443,-13678,93,26
16.14,1030,-5472,3064,9240,-25874,-24306,-13738,93,26
16.16,1019,-4464,2824,5624,-22938,-28113,-13311,93,26
16.18,1025,-4136,1920,4468,-20127,-30091,-12248,93,26
16.20,1027,-5176,2252,5436,-17347,-30654,-9946,93,26
16.22,1027,-8496,4524,7856,-15320,-32768,-6315,93,26
16.24,1021,-11808,7312,7716,-13552,-32768,-3621,93,26
16.26,1022,-8448,7548,5796,-12341,-32768,-1300,93,26
16.28,1010,-5628,6680,3244,-11435,-29550,231,93,26
16.30,1018,-4184,4768,2008,-9953,-28515,2929,93,26
16.32,1015,-3464,3444,2688,-5416,-32394,6340,93,26
16.34,1020,-236,5740,2592,176,-32768,9357,93,26
16.36,1017,5560,6624,-2196,2455,-27208,12046,93,26
16.38,1018,9952,3620,-7452,4283,-20277,13490,93,26
16.40,1000,9108,2716,-7328,12312,-12209,10163,93,26
16.42,1013,14360,8632,-11956,19122,-4030,9176,93,26
16.44,1013,17880,6516,-9584,20718,3487,7554,93,26
16.46,1028,21964,-460,-9140,28653,8591,10642,93,26
16.48,1011,13112,-868,-3892,32767,10531,15039,93,26
16.50,1012,5232,7892,208,32767,7493,24074,93,26
16.52,1012,2516,15184,7168,32767,8714,32767,93,26
16.54,1010,-6420,24236,15108,32767,20739,32767,93,26
16.56,1024,-20476,32767,14244,32767,32767,32767,93,26
16.58,1013,-32768,32767,13968,32767,25774,32767,93,26
16.60,1016,-32768,32767,21092,32767,12402,29999,93,26
16.62,1014,-31068,26416,24432,32767,14205,23109,93,26
16.64,1021,-24624,20680,23272,32767,24508,21487,93,26
16.66,1015,-23532,18972,19104,32767,30033,20289,93,26
16.68,1006,-23820,15444,15324,32767,25968,17980,93,26
16.70,1011,-25060,12688,15836,32577,23524,11169,93,26
16.72,1032,-21556,8540,20644,28316,23495,6872,93,26
16.74,1020,-16952,3000,21180,27179,28018,2893,93,26
16.76,1023,-19120,4152,25708,26374,27145,-1131,93,26
16.78,1019,-26168,7448,32767,23982,17741,-3287,93,26
16.80,1021,-30116,11048,32767,20926,1866,-6801,93,26
16.82,1019,-27244,22276,32767,16829,-12171,-12734,93,26
16.84,1022,-23776,32767,32767,7744,-19464,-21545,93,26
16.86,1022,-21272,32767,32767,-8363,-25321,-25014,93,26
16.88,1024,-20200,32767,32767,-24762,-28367,-23808,93,26
16.90,1023,-20152,32767,32767,-27366,-23454,-19857,93,26
16.92,1007,-26808,32767,32767,-30563,-16556,-15137,93,26
16.94,1031,-31472,29196,31464,-32768,-15234,-14927,93,26
16.96,1019,-29596,22896,23604,-32768,-17783,-18021,90,24
16.98,1012,-22380,16416,16776,-32768,-19924,-20841,90,24
17.00,1015,-16324,11276,10724,-32768,-19939,-23747,90,24
17.02,1024,-15276,9524,7220,-32768,-20878,-26788,90,24
17.04,1021,-13924,9756,5500,-32768,-23493,-28682,90,24
17.06,1012,-14408,10432,5508,-32768,-25846,-29926,90,24
17.08,1009,-17720,12300,6100,-32768,-28841,-30501,90,24
17.10,1012,-18444,13648,4548,-32768,-32768,-29656,90,24
17.12,1016,-18096,14076,4116,-32768,-32768,-27264,90,24
17.14,996,-14692,15164,4960,-32768,-32768,-22937,90,24
17.16,1026,-11084,15892,4464,-32768,-27780,-18595,90,24
17.18,1012,-4796,14692,2544,-32768,-21425,-13244,90,24
17.20,1006,-120,12980,504,-32768,-19045,-8186,90,24
17.22,1018,6664,11464,-1516,-30531,-15931,-4157,90,24
17.24,1023,15532,9540,-3560,-26237,-9773,-2108,90,24
17.26,1018,21248,7064,-5008,-18910,-2865,-1919,90,24
17.28,1015,23144,6224,-6244,-10162,-1897,-1899,90,24
17.30,1011,28868,3196,-7156,-2980,-4054,38,90,24
17.32,1010,31080,-920,-6096,7342,-4633,3394,90,24
17.34,1012,24720,-2192,-3268,18463,-2446,10485,90,24
17.36,1006,17484,-1168,-2836,28462,1057,20866,90,24
17.38,1010,12168,-388,-2736,32767,5449,31651,90,24
17.40,1030,2320,4712,2948,32767,8340,32767,90,24
17.42,1000,-13312,14664,15580,32767,6311,32767,90,24
17.44,1015,-17968,17492,16068,32767,12192,32767,90,24
17.46,1023,-16088,13560,8712,32767,9774,32767,90,24
17.48,1028,-18412,16504,9140,32767,5535,32767,90,24
17.50,1028,-18916,20340,15356,32767,10084,32767,90,24
17.52,1024,-20704,18888,19200,32767,14068,32767,90,24
17.54,1020,-19704,14048,16432,32767,14185,29802,90,24
17.56,1026,-15504,10332,12012,32767,14093,26648,90,24
17.58,1017,-17144,9652,16888,32767,11181,22142,90,24
17.60,1016,-17624,7004,21368,31303,11461,15051,90,24
17.62,1027,-15924,4224,23760,26057,14080,10340,90,24
17.64,1019,-15392,2428,27304,19955,14407,6506,90,24
17.66,1017,-18456,876,32767,13890,8823,2088,90,24
17.68,1008,-19676,2116,32767,12290,2756,-1416,90,24
17.70,1029,-20316,7412,32767,12703,1288,-3281,90,24
17.72,990,-24500,15060,32767,7800,-4022,-5713,90,24
17.74,1023,-25340,19076,32767,-1976,-18471,-11917,90,24
17.76,1028,-21560,21572,32767,-11610,-26996,-15871,90,24
17.78,1023,-15492,23420,32767,-17281,-19323,-14087,90,24
17.80,1017,-15832,25300,32767,-23085,-977,-9852,90,24
17.82,1038,-20680,20436,32767,-29131,10931,-10159,90,24
17.84,1018,-21628,15080,32767,-30231,8897,-13483,90,24
17.86,1018,-17708,11000,26580,-30425,1305,-17861,90,24
17.88,1012,-12576,6872,19684,-31246,-4055,-20975,90,24
17.90,1025,-8324,4512,15004,-31530,-7390,-23386,90,24
17.92,1020,-5504,4356,11168,-31358,-8997,-25682,90,24
17.94,1024,-4260,5808,7716,-31177,-9694,-26783,90,24
17.96,1032,-5428,7908,6280,-30720,-10557,-27192,90,24
17.98,1008,-7284,9396,7160,-30017,-12357,-26716,90,24
18.00,1010,-8276,9972,6492,-29434,-13158,-26064,90,24
18.02,1028,-8196,9972,5712,-28212,-11923,-24782,90,24
18.04,1014,-8412,10204,5700,-26588,-10383,-23789,90,24
18.06,1018,-8060,10296,5720,-25048,-11096,-22430,90,24
18.08,1010,-5052,8580,5328,-24252,-13204,-19754,90,24
18.10,1025,-764,6560,4416,-22376,-14172,-15916,90,24
18.12,984,2480,6108,3488,-19142,-12104,-12099,90,24
18.14,1008,5144,5908,2800,-15593,-9296,-8876,90,24
18.16,1014,7960,5504,1284,-13080,-5483,-7172,90,24
18.18,1007,9940,4708,-720,-9289,-3388,-6317,90,24
18.20,1017,13584,6284,-4344,-3656,-857,-4689,90,24
18.22,1008,19644,3424,-6332,-658,1301,-1301,90,24
18.24,1013,17032,-2260,-3596,8241,7412,3304,90,24
18.26,1014,10956,-4724,3596,20712,11844,11432,90,24
18.28,1030,8880,-6412,7996,29331,9777,23752,90,24
18.30,1024,4628,-7368,8380,32767,11733,32767,90,24
18.32,1012,944,-2440,7268,32767,22478,32767,90,24
18.34,1025,-7800,11888,12244,32767,32710,32767,90,24
18.36,1027,-29484,23748,13240,32767,26431,32767,90,24
18.38,1028,-31512,17304,15568,32767,11329,32767,90,24
18.40,1008,-25936,17048,12452,32767,5115,30526,90,24
18.42,1014,-23952,16092,12628,32767,5817,25048,90,24
18.44,1024,-16744,14096,14728,32767,8676,22004,90,24
18.46,1022,-17560,14036,15672,32767,11081,17845,90,24
18.48,1013,-19992,12372,18324,32767,9265,11818,90,24
18.50,1018,-17852,7940,22716,32376,5586,4690,90,24
18.52,1014,-15060,2188,22916,26931,3145,-1968,90,24
18.54,1013,-12024,-572,23604,23932,2457,-5417,90,24
18.56,1015,-11536,48,28804,20321,1280,-6426,90,24
18.58,998,-17288,964,32767,17632,-85,-9912,90,24
18.60,1012,-23364,6488,32767,19731,-1093,-15381,90,24
18.62,1027,-32768,19496,32767,22048,-7624,-21855,90,24
18.64,1030,-32768,32767,32767,24762,-20904,-29777,90,24
18.66,1024,-32768,32767,32767,9009,-26299,-32437,90,24
18.68,1024,-31656,32767,32767,-9244,-20771,-27074,90,24
18.70,1015,-21208,32767,32767,-18302,-5618,-20278,90,24
18.72,1016,-20004,26756,25136,-21282,4867,-15509,90,24
18.74,1019,-15812,18836,17064,-21433,4984,-14186,90,24
18.76,1014,-10860,11632,10192,-18009,157,-14622,90,24
18.78,1016,-4220,6084,3572,-12731,-3171,-16050,90,24
18.80,1017,1316,4132,-2312,-5474,-2846,-18157,90,24
18.82,1009,5328,6080,-4568,175,403,-20234,90,24
18.84,1012,5592,6120,-6036,1049,1087,-19899,90,24
18.86,1023,5268,2976,-6108,2072,-913,-16844,90,24
18.88,1012,5804,1452,-4168,5328,-315,-12682,90,24
18.90,1015,4640,1556,-232,7464,2768,-9528,90,24
18.92,1024,1180,1768,2464,8881,3022,-7842,90,24
18.94,1026,-784,1668,3884,10375,1920,-8009,90,24
18.96,1016,556,1120,5048,11058,5131,-8627,90,24
18.98,1021,-148,696,4888,10203,8373,-8632,90,24
19.00,1012,-6368,816,8456,9977,4772,-9670,90,24
19.02,1008,-11112,4052,15556,12003,-2011,-12155,90,24
19.04,1008,-10716,6828,18428,11133,-5188,-14622,90,24
19.06,1010,-9552,6304,21300,7840,-7176,-14150,90,24
19.08,1018,-13700,6556,21508,4435,-8141,-11141,90,24
19.10,1026,-12928,4844,25064,1844,-10388,-465,90,24
19.12,1017,-11056,4340,25140,1373,-4797,11843,90,24
19.14,1034,-21608,6696,30604,-1229,-258,24826,90,24
19.16,1026,-32768,8900,27772,-830,-2016,32767,90,24
19.18,1023,-32768,11304,22932,4900,-6087,32767,90,24
19.20,1021,-23884,11728,19552,6582,1510,32767,90,24
19.22,1018,-21472,11936,16792,7961,13724,32767,90,24
19.24,1024,-24272,10596,17616,5735,20496,26453,90,24
19.26,1029,-22472,5196,13000,2439,17336,17057,90,24
19.28,1027,-15636,-4148,9056,4645,9199,8801,90,24
19.30,1009,-8952,-7400,7192,10742,3015,2975,90,24
19.32,1004,-4164,-5196,6956,11997,3136,381,90,24
19.34,1008,-324,-3940,8296,10709,6999,-93,90,24
19.36,1020,-372,-1904,7768,8424,8881,404,90,24
19.38,1024,-2072,-1216,6908,6208,6463,298,90,24
19.40,1016,-992,-796,6164,6124,3554,-630,90,24
19.42,1012,-24,-208,5876,6168,2646,-2377,90,24
19.44,1023,-1908,1000,6012,5458,937,-4157,90,24
19.46,1028,-5096,2212,7432,5200,-1285,-6446,90,24
19.48,1031,-8220,4240,9732,5271,-1948,-9292,90,24
19.50,1007,-15788,9380,12600,5008,-161,-14013,90,24
19.52,1014,-29988,14012,15156,3177,-5490,-17084,90,24
19.54,1014,-32768,18272,18892,7197,-17531,-15996,90,24
19.56,1020,-32768,25672,19180,11526,-21260,-12998,90,24
19.58,1009,-32768,31820,16788,2739,-12287,-10850,90,24
19.60,1012,-30436,22704,15336,-5420,-1969,-8539,90,24
19.62,1009,-25624,13480,15036,-1151,4825,-4933,90,24
19.64,1024,-21360,13348,16600,4599,5887,-67,90,24
19.66,1007,-18252,15252,13544,4403,5291,4980,90,24
19.68,1016,1324,12696,17212,3993,17906,7927,90,24
19.70,1002,-4952,16412,10712,-4352,32767,5171,90,24
19.72,1016,-3416,5068,7516,-12572,32767,7463,90,24
19.74,1023,-6404,1208,5376,-10234,28806,5853,90,24
19.76,1007,-11808,-1624,3324,-7905,8457,2736,90,24
19.78,1009,-2600,-3856,2264,-846,-8151,619,90,24
19.80,1005,2884,-128,1408,3498,-14461,823,90,24
19.82,1016,4140,1004,2476,2837,-14746,1389,90,24
19.84,1016,164,916,3968,302,-12634,2383,90,24
19.86,1015,-3160,1180,5376,-1960,-12740,1638,90,24
19.88,1032,-2472,344,6644,-1939,-14325,-688,90,24
19.90,1014,-4960,1184,8632,-2500,-13720,-3766,90,24
19.92,1006,-10592,3580,8908,-4162,-16172,-7100,90,24
19.94,1005,-15460,6212,13620,-5475,-18708,-10106,89,27
19.96,1016,-16480,9092,17728,-5710,-14509,-11662,89,27
19.98,1025,-27800,12720,20196,-6854,-13969,-11179,89,27
20.00,1030,-32768,14988,20848,-8408,-13583,-6862,89,27
20.02,1016,-31712,14192,21904,-11654,-10200,-4109,89,27
20.04,1025,-28008,9644,22876,-13267,1054,-2912,89,27
20.06,1017,-28372,4884,18088,-9066,14297,518,89,27
20.08,1011,-32332,5200,18400,-1086,13005,6991,89,27
20.10,1012,-29464,8936,15256,3006,3219,12106,89,27
20.12,1017,-15416,7824,12900,4177,-6996,14781,89,27
20.14,1029,-5600,7668,11556,8149,-7286,16498,89,27
20.16,1020,-3196,10044,9688,9942,-1928,15653,89,27
20.18,1013,-1020,9052,10144,6095,1179,13473,89,27
20.20,1016,5712,5552,9640,51,17373,13360,89,27
20.22,1017,-2640,1692,7948,-6181,11311,11508,89,27
20.24,1013,-604,-1820,8840,2550,-2694,7973,89,27
20.26,1013,1460,1656,7220,9857,-8911,3481,89,27
20.28,1012,2372,2768,8036,6262,-11878,3969,89,27
20.30,1034,6512,88,11032,-3560,-282,7366,89,27
20.32,1017,3912,-136,11188,-3679,12997,5178,89,27
20.34,1009,540,1444,10884,-6312,23647,3732,89,27
20.36,1024,-2748,1368,10668,-9658,28247,1691,89,27
20.38,1009,-11692,3684,11004,-10796,24841,-2025,89,27
20.40,1010,-23752,8392,11028,-10620,19841,-8459,89,27
20.42,1021,-32768,14316,8968,-9232,11980,-11941,89,27
20.44,1022,-32768,20624,8288,-5799,-1825,-10194,89,27
20.46,1018,-32768,30324,6128,-4763,2572,-7287,89,27
20.48,1029,-32768,28940,5576,-14804,5920,-9051,89,27
20.50,1015,-32768,16960,5408,-15139,6706,-6886,89,27
20.52,1016,-31752,8700,6372,-5660,2029,-1610,89,27
20.54,1014,-21324,8360,8512,3429,-4598,3511,89,27
20.56,1021,-11804,9084,8916,6339,-6792,6293,89,27
20.58,1014,-1644,7232,7360,7239,-4905,8064,89,27
20.60,1011,4596,4532,7676,8144,-4000,8172,89,27
20.62,1015,6316,3092,7920,7499,-141,7774,89,27
20.64,1012,6476,1536,9496,4293,-130,9382,89,27
20.66,1011,5852,92,9200,1797,-2751,11414,89,27
20.68,1017,6444,704,8680,208,-1390,13898,89,27
20.70,1015,5016,2268,11472,-2734,5845,15523,89,27
20.72,1021,-424,3772,13052,-6563,13289,15629,89,27
20.74,1024,-5304,4916,13488,-10842,15992,13059,89,27
20.76,1026,-8940,4976,13312,-15677,16828,7433,89,27
20.78,1008,-15792,6280,14296,-20179,14987,2294,89,27
20.80,1013,-22492,8568,14448,-22057,11386,-4540,89,27
20.82,1032,-28392,11408,11556,-21237,6094,-10226,89,27
20.84,1018,-32768,14692,8688,-18912,-222,-13908,89,27
20.86,1015,-32768,18600,6776,-12975,-3303,-12971,89,27
20.88,1016,-32768,20416,3788,-8737,-1387,-14403,89,27
20.90,1021,-32768,18804,3636,-2900,-4987,-16091,89,27
20.92,1018,-32768,15228,3312,4960,-13565,-15232,89,27
20.94,1009,-25780,13440,5132,13277,-17698,-12041,89,27
20.96,1026,-16180,12784,6060,16249,-17043,-7350,89,27
20.98,1024,-3564,10240,5908,17113,-14130,-2842,89,27
21.00,1010,7304,8552,5600,19137,-13375,2181,89,27
21.02,1028,9888,8240,7092,17883,-8323,4630,89,27
21.04,1030,10984,4940,8468,14382,-966,6216,89,27
21.06,1024,12044,1168,10312,12052,2385,8289,89,27
21.08,1021,10620,1164,9580,10106,3451,10870,89,27
21.10,1017,6336,3276,8276,5519,2497,11979,89,27
21.12,1020,1864,4104,10072,1055,2011,12007,89,27
21.14,1009,-2344,5892,12364,-2227,5842,11358,89,27
21.16,1012,-5992,7528,14220,-6806,10732,9169,89,27
21.18,1028,-10472,8648,15984,-13182,11913,5057,89,27
21.20,1013,-14948,10188,17352,-18285,9182,1009,89,27
21.22,1024,-18448,12444,17568,-21064,7854,-2567,89,27
21.24,1014,-22160,14924,15868,-21646,7797,-3413,89,27
21.26,1030,-29072,16848,14976,-19503,8943,-1673,89,27
21.28,1022,-32768,16348,14980,-16376,7336,-221,89,27
21.30,1016,-32768,12644,14008,-12630,3238,-3426,89,27
21.32,1018,-32684,7820,11052,-6287,-4766,-6064,89,27
21.34,1014,-30656,4248,8744,1117,-12159,-5664,89,27
21.36,1020,-27420,3724,9136,9031,-14378,-2709,89,27
21.38,1026,-20320,5540,9528,13336,-8741,1180,89,27
21.40,1023,-15420,5944,9368,15342,-1846,3294,89,27
21.42,1018,-12040,7492,7620,17329,-2076,5622,89,27
21.44,1013,-8848,7368,7308,17702,-9050,5632,89,27
21.46,1011,-4320,6888,7048,18449,-13202,2797,89,27
21.48,1019,-40,6188,7876,17471,-13365,-307,89,27
21.50,1022,2020,5628,9348,14994,-12297,-2107,89,27
21.52,1018,1528,5136,8668,11818,-12916,-2741,89,27
21.54,1024,1684,3496,7624,8156,-12674,-2418,89,27
21.56,1020,2824,2324,9632,5660,-9354,-1498,89,27
21.58,1021,1928,2176,11528,2596,-3860,-1161,89,27
21.60,1024,-1340,1780,12864,255,-829,-1782,89,27
21.62,1020,-3352,3296,14004,-1484,-1487,-2784,89,27
21.64,1016,-8212,7060,15536,-4128,-3529,-3914,89,27
21.66,1025,-15116,10836,17500,-5873,-5901,-5081,89,27
21.68,1021,-20636,14248,19612,-5415,-4313,-5782,89,27
21.70,1003,-27204,18232,22628,-5023,-2585,-4433,89,27
21.72,999,-30712,21536,22868,-5450,-2736,-3849,89,27
21.74,1006,-29844,20816,20732,-7886,-2868,-6555,89,27
21.76,1005,-29000,16824,18280,-6431,-4430,-6665,89,27
21.78,1025,-27288,16016,16500,-1488,-5113,-5409,89,27
21.80,1027,-22384,15104,14760,437,-1280,-3948,89,27
21.82,1018,-16976,11032,11256,1604,3514,-2679,89,27
21.84,1008,-11572,7112,7412,4355,3818,-1532,89,27
21.86,1008,-6292,5704,6184,7972,-66,-559,89,27
21.88,1023,-1640,5692,6328,8685,-2981,-44,89,27
21.90,1002,856,4556,5368,6919,-3791,635,89,27
21.92,1010,900,3012,4264,5595,-4448,1643,89,27
21.94,1018,2324,2820,5664,4767,-3890,2685,89,27
21.96,1024,2392,3276,7400,2614,-659,3023,89,27
21.98,1025,808,3040,7616,-138,2100,2955,89,27
22.00,1028,-1116,2380,7876,-1702,1818,2672,89,27
22.02,1008,-1436,2800,9336,-2070,379,2831,89,27
22.04,1006,-3048,4996,11996,-2627,360,2784,89,27
22.06,1013,-6248,7320,14592,-3686,225,2802,89,27
22.08,1020,-11140,9920,17684,-3728,-791,2585,89,27
22.10,1015,-16928,14096,21668,-2824,-1485,1555,89,27
22.12,1018,-19420,17376,24200,-2763,-235,782,89,27
22.14,1009,-20784,18224,26164,-4795,2096,-1058,89,27
22.16,1024,-23388,14808,26812,-6048,1190,-2673,89,27
22.18,1028,-23264,10720,26172,-3132,-1075,-3142,89,27
22.20,1011,-22372,8168,24580,-1072,-1663,-2789,89,27
22.22,1011,-22924,5412,23908,445,-435,-2997,89,27
22.24,1024,-23320,3876,23364,2815,-657,-3638,89,27
22.26,1022,-20748,4456,21040,4934,-3752,-3687,89,27
22.28,1019,-17448,5992,18632,5349,-6493,-3567,89,27
22.30,1029,-10508,7300,14316,5403,-6066,-2318,89,27
22.32,1029,-2464,7760,9264,5461,-2316,-649,89,27
22.34,1006,1748,6276,6016,4439,1994,585,89,27
22.36,1010,2652,4252,4828,4485,3497,1217,89,27
22.38,1024,1608,3788,5692,4834,343,809,89,27
22.40,1026,1900,2680,5600,3789,-3891,798,89,27
22.42,1025,2548,1444,4944,3583,-5983,1031,89,27
22.44,1013,2384,284,6312,3319,-5533,1711,89,27
22.46,1015,448,712,9632,2992,-4636,1615,89,27
22.48,1008,-2644,2268,12472,1093,-5343,5,89,27
22.50,1021,-3196,3168,13344,-2124,-8267,-1629,89,27
22.52,1012,-6716,5120,14772,-5756,-11460,-2128,89,27
22.54,1032,-11124,8340,18220,-7624,-13662,-541,89,27
22.56,1028,-13892,13500,23276,-7279,-10841,1988,89,27
22.58,1010,-20700,20076,27920,-6846,-5237,4563,89,27
22.60,1016,-27056,27152,29380,-7857,-381,4578,89,27
22.62,1030,-28504,27832,27216,-14012,3387,1453,89,27
22.64,1010,-26900,19740,24732,-14200,8090,-1369,89,27
22.66,1018,-25728,15388,21200,-9667,9537,-2139,89,27
22.68,1023,-23452,11276,17784,-6952,6210,-2340,89,27
22.70,1010,-20104,5008,16148,-4468,2355,-2854,89,27
22.72,1014,-16952,336,14396,601,630,-4302,89,27
22.74,1026,-12864,924,10540,5169,-1375,-4613,89,27
22.76,1021,-6336,3320,6916,6578,-2692,-4047,89,27
22.78,1013,-1364,3580,4660,5005,-2354,-3810,89,27
22.80,1019,1144,1992,2800,2354,-1009,-3387,89,27
22.82,1003,1812,968,976,1009,425,-2560,89,27
22.84,1004,2344,1036,828,377,1289,-1324,89,27
22.86,1013,2904,1084,2304,-112,1929,294,89,27
22.88,1024,1728,1984,4284,182,2029,1382,89,27
22.90,1024,536,2664,5800,159,1485,1635,89,27
22.92,1019,-480,2400,7964,515,341,1373,89,27
22.94,1021,-2664,3940,12028,1575,-2548,1664,99,28
22.96,1030,-6244,8092,18624,1987,-6260,1813,99,28
22.98,1018,-9336,13564,25932,1590,-8851,2498,99,28
23.00,1022,-14972,19432,32708,296,-8062,3962,99,28
23.02,1032,-16328,23572,32767,-1946,-3560,6911,99,28
23.04,1015,-15152,21460,32767,-7123,5146,7130,99,28
23.06,1024,-18988,14716,32767,-7613,8436,6634,99,28
23.08,1012,-19084,10324,32144,-4464,5763,7070,99,28
23.10,1016,-17524,5684,29224,-2712,5535,7906,99,28
23.12,995,-17136,168,26280,-846,8752,7235,99,28
23.14,1011,-17504,-3944,22676,2553,7534,5841,99,28
23.16,1018,-16404,-3480,19592,6460,1923,3934,99,28
23.18,1022,-10968,-2144,14768,8791,-2692,2215,99,28
23.20,1022,-4980,-1308,9364,10113,-2633,508,99,28
23.22,1018,-1960,-108,5908,10569,-561,-1147,99,28
23.24,1024,-1436,168,4732,10120,-744,-3275,99,28
23.26,1006,-776,-256,4068,9820,-3953,-5545,99,28
23.28,1004,300,-152,3320,9639,-7367,-6233,99,28
23.30,1016,108,1212,2800,9386,-9629,-5267,99,28
23.32,1024,368,2200,4036,8463,-8771,-3585,99,28
23.34,1009,76,2592,5304,7091,-5469,-2139,99,28
23.36,1036,-2348,3588,7320,6307,-3982,-2751,99,28
23.38,1016,-5032,5736,11228,5407,-6393,-4103,99,28
23.40,1026,-10252,10032,18668,4427,-12155,-4802,99,28
23.42,1020,-17528,18192,27372,6275,-16922,-5102,99,28
23.44,1032,-20056,32048,32767,10710,-12999,-2753,99,28
23.46,1022,-20604,32767,32060,5534,963,-317,99,28
23.48,1017,-23340,32767,25456,-18814,5159,-3737,99,28
23.50,992,-21140,20932,22072,-19437,5857,-6108,99,28
23.52,1028,-18336,12632,17004,-10676,3887,-3892,99,28
23.54,1001,-17024,6184,14744,-5829,3713,-318,99,28
23.56,1016,-15744,-1128,12072,399,7412,1522,99,28
23.58,1018,-15508,-3432,7032,8279,8771,1591,99,28
23.60,1029,-11884,-944,2476,13978,5788,778,99,28
23.62,1030,-6956,-196,1296,14616,2767,-1036,99,28
23.64,1037,-4136,-848,1228,13787,1320,-2628,99,28
23.66,1025,-1512,-1116,2464,12300,-865,-2715,99,28
23.68,1030,-144,432,5092,10567,-2223,-2027,99,28
23.70,1001,244,1932,7668,7065,-2642,-1134,99,28
23.72,1033,-864,3016,9640,3532,-4223,-942,99,28
23.74,1009,-724,3180,11296,798,-6361,-1266,99,28
23.76,1031,-800,4572,13764,-1739,-7187,-1862,99,28
23.78,1004,-3640,7764,16084,-5043,-10906,-2734,99,28
23.80,1007,-9612,11428,19488,-7877,-21230,-4814,99,28
23.82,1025,-9244,14316,26400,-8014,-27360,-7239,99,28
23.84,1024,-7484,20448,32600,-8980,-21555,-7753,99,28
23.86,1019,-10192,25080,32767,-12136,-12001,-5688,99,28
23.88,1016,-18064,24488,32767,-14818,-6954,-4276,99,28
23.90,1016,-19908,17812,32767,-14929,-2661,-3334,99,28
23.92,1019,-19932,12052,32767,-11041,1568,-988,99,28
23.94,1025,-19660,7844,27832,-6656,5676,67,99,28
23.96,1021,-12104,1112,19020,-737,10078,2160,99,28
23.98,1025,-10008,-1344,15504,5656,11416,2847,99,28
24.00,1017,-7928,1892,11804,11701,10146,3491,99,28
24.02,1020,-2812,5208,8124,13888,8659,3190,99,28
24.04,1018,52,3772,6492,12392,9913,1727,99,28
24.06,1019,692,1612,4428,11259,11090,-165,99,28
24.08,1022,488,-152,2256,10459,7528,-639,99,28
24.10,1028,728,-688,2164,9969,1894,-130,99,28
24.12,1021,-560,-964,4884,9203,-2436,899,99,28
24.14,1010,-1144,28,7592,8617,-3797,1277,99,28
24.16,1016,24,672,7788,7172,-2208,1128,99,28
24.18,1012,-852,1428,6904,4760,-278,-51,99,28
24.20,1029,-2364,1936,7756,2729,-1955,-1497,99,28
24.22,1022,-4216,3948,10836,1221,-4013,-3929,99,28
24.24,1014,-11580,8780,19012,-2079,-7847,-7982,99,28
24.26,1026,-16432,13584,26200,-6555,-9801,-12211,99,28
24.28,1012,-21928,18620,30564,-9406,-12476,-13626,99,28
24.30,1024,-28080,23340,32767,-11053,-8114,-15032,99,28
24.32,1025,-23408,21220,32420,-15701,-651,-11739,99,28
24.34,1012,-20548,15552,29180,-16066,8791,-8411,99,28
24.36,1033,-22652,9400,24936,-12850,12839,-4631,99,28
24.38,1024,-17812,2528,18360,-3892,10184,1941,99,28
24.40,1025,-19444,2336,22732,6175,2750,7480,99,28
24.42,1010,-10272,5736,20032,14646,1432,12429,99,28
24.44,1014,-2164,8232,14092,16537,9991,14763,99,28
24.46,1015,-192,7396,7392,16060,15703,15453,99,28
24.48,1021,-2080,6816,6064,15655,13920,13149,99,28
24.50,1019,-2024,5428,6192,13869,9423,9070,99,28
24.52,1029,-2692,2984,6136,11515,2874,6012,99,28
24.54,1020,-3084,1156,6160,10531,-3018,4618,99,28
24.56,1024,-4556,2076,8272,9317,-6783,4309,99,28
24.58,1024,-4168,3276,9232,6309,-6515,5226,99,28
24.60,1012,-2608,2476,9652,2660,-3215,5445,99,28
24.62,1022,-3272,1852,9968,-320,542,3522,99,28
24.64,1015,-4772,1540,9792,-2553,1769,153,99,28
24.66,1005,-8240,1952,11368,-4274,-1070,-3574,99,28
24.68,1028,-15928,6108,15964,-7005,-9109,-7966,99,28
24.70,1015,-16912,9528,17736,-9146,-18087,-11172,99,28
24.72,1020,-20916,13432,22844,-10750,-23655,-13873,99,28
24.74,1027,-27164,18900,32104,-10731,-21023,-11643,99,28
24.76,1024,-26416,23532,32767,-11206,-9692,-6037,99,28
24.78,1015,-24840,22924,32767,-16706,5292,-3214,99,28
24.80,1025,-25676,15748,26948,-17055,13573,-1691,99,28
24.82,1029,-21108,8276,18588,-10189,16330,-1041,99,28
24.84,1024,-14080,3044,16576,-2779,13902,2277,99,28
24.86,1018,-11028,2856,16924,6118,10614,3819,99,28
24.88,1017,-4496,5816,12252,11667,9064,6863,99,28
24.90,1008,-24,7020,8156,12079,10808,6710,99,28
24.92,1023,624,5440,6688,10343,11357,5312,99,28
24.94,1008,1600,2388,5164,8780,9440,3570,99,28
24.96,1020,1868,-272,3272,8125,4657,2858,99,28
24.98,1024,1868,-912,2556,8307,-73,3611,99,28
25.00,1013,1140,136,2024,7453,-1775,5091,99,28
25.02,1021,-1636,1312,2700,5645,-1248,7050,99,28
25.04,1025,-1440,1640,5544,3968,-1914,9680,99,28
25.06,1024,332,1588,8408,2411,-1010,10953,99,28
25.08,1015,-1084,1540,9640,-487,683,10617,99,28
25.10,1026,-7808,4116,13728,-3384,-2969,9247,99,28
25.12,1009,-16952,10380,22572,-9222,-12328,6520,99,28
25.14,1023,-11792,13580,25348,-13947,-20713,6004,99,28
25.16,1026,-11820,21600,27808,-11030,-21944,6357,99,28
25.18,1019,-21304,32767,30812,-8260,-10873,8865,99,28
25.20,1026,-28248,32767,32767,-22742,-2319,10591,99,28
25.22,1018,-27216,31532,32767,-30390,5435,6354,99,28
25.24,1026,-24304,20164,26856,-25670,12921,1655,99,28
25.26,1031,-23836,10948,20700,-19924,14442,-1281,99,28
25.28,1018,-17728,3272,15416,-10716,14487,-559,99,28
25.30,1023,-14960,2640,11796,-1779,12539,-207,99,28
25.32,1026,-7740,5552,7456,2776,11764,-452,99,28
25.34,1011,-412,4940,4116,1636,14383,-575,99,28
25.36,1019,1280,1576,2120,-705,16637,-325,99,28
25.38,1007,572,-1876,1736,-2358,14095,653,99,28
25.40,1017,948,-4392,2872,-2579,9119,3059,99,28
25.42,1008,2180,-4104,5192,-2533,6211,6383,99,28
25.44,1010,2308,-1968,7032,-3302,5626,9857,99,28
25.46,1004,1808,56,8220,-4165,5724,12871,99,28
25.48,1014,396,1640,9148,-5066,5549,13993,99,28
25.50,1012,-1116,2980,10268,-6250,3994,13257,99,28
25.52,1026,-660,4100,10508,-7608,2849,11411,99,28
25.54,1020,-3828,7856,12388,-9536,1966,8565,99,28
25.56,1007,-13580,14796,19028,-13232,-2898,4125,99,28
25.58,1008,-21428,20832,25132,-14163,-4492,519,99,28
25.60,1005,-31700,28000,27988,-12292,-6056,4212,99,28
25.62,1021,-32768,32767,30940,-15886,-1290,10016,99,28
25.64,1026,-32768,32504,29944,-24367,6361,7710,99,28
25.66,1015,-28408,20452,23372,-26151,15307,5277,99,28
25.68,1017,-29252,10972,17532,-21376,17653,4964,99,28
25.70,1019,-24436,2788,12976,-15580,15270,7411,99,28
25.72,1017,-16848,-2760,10852,-7074,11097,10832,99,28
25.74,1004,-10456,188,9856,-1090,8445,12754,99,28
25.76,995,-3036,2440,8236,-429,9195,12999,99,28
25.78,989,920,-164,6992,-2348,12251,11852,99,28
25.80,1000,2488,-3948,6388,-3252,12980,10662,99,28
25.82,1008,2532,-6824,6328,-3481,9808,10195,99,28
25.84,1010,2268,-7220,5860,-3606,5035,10875,99,28
25.86,1009,180,-5060,4748,-4543,2105,12130,99,28
25.88,1019,388,-2736,5052,-6427,454,14806,99,28
25.90,1002,1164,-260,5708,-8524,579,16563,99,28
25.92,1001,308,2528,6484,-10630,2610,16775,111,28
25.94,1004,-3248,5556,8816,-13190,4242,14346,111,28
25.96,1015,-9736,9932,13280,-16713,4718,10500,111,28
25.98,1009,-15920,15432,17924,-19320,2054,6611,111,28
26.00,1025,-22896,21556,24116,-18268,-2161,3972,111,28
26.02,1009,-30292,29676,28772,-15952,-3241,4299,111,28
26.04,1020,-32768,32767,28656,-17945,1991,6152,111,28
26.06,1016,-31772,32767,26868,-28536,7241,6711,111,28
26.08,1010,-31072,16744,22620,-29237,10492,6677,111,28
26.10,1008,-28604,8788,18988,-21467,10343,8091,111,28
26.12,1009,-24624,2944,13996,-16461,10139,10540,111,28
26.14,1014,-19140,-3920,10372,-9972,10413,12284,111,28
26.16,1032,-14624,-4196,7336,-1299,9863,12048,111,28
26.18,1011,-7672,-772,5576,3035,8833,11366,111,28
26.20,1015,-2912,-1136,4132,3244,11142,7844,111,28
26.22,1016,-1148,-4928,3420,2685,10715,4468,111,28
26.24,1015,-532,-8472,3944,2865,6335,2502,111,28
26.26,1024,1912,-9704,5792,3047,1790,3463,111,28
26.28,1018,3616,-7492,8476,2158,-972,5991,111,28
26.30,1007,3152,-4076,9820,2463,-1209,6850,111,28
26.32,1014,1152,-812,10008,-3582,-3155,11059,111,28
26.34,1032,-484,1616,10260,-6670,-6235,12989,111,28
26.36,1016,-4040,5848,10640,-6212,-11081,11700,111,28
26.38,1029,-3676,9360,16228,-6933,-16034,11226,111,28
26.40,1013,-10128,17852,25300,-6625,-20449,7498,111,28
26.42,1009,-11324,27172,29136,-4529,-19606,5539,111,28
26.44,1015,-12848,32767,28628,-5810,-7827,5969,111,28
26.46,1001,-17168,32767,27312,-18944,3339,10239,111,28
26.48,1003,-25700,27336,31340,-24883,7340,10400,111,28
26.50,1004,-27848,16356,30980,-20899,8623,12156,111,28
26.52,1006,-27720,11048,25656,-15390,8753,12236,111,28
26.54,1028,-26828,6912,18796,-12781,9682,10198,111,28
26.56,1002,-20660,-928,12596,-8767,11833,9057,111,28
26.58,1020,-15400,-2740,6356,-1895,14229,7073,111,28
26.60,976,-9072,-1068,2384,3280,14829,5126,111,28
26.62,990,-3300,-2212,2268,5720,14303,2954,111,28
26.64,998,-936,-4180,3352,7855,11523,897,111,28
26.66,1015,444,-4384,4808,10495,5542,-802,111,28
26.68,1022,2788,-3636,6796,11364,-126,-814,111,28
26.70,1016,3664,-3340,7828,10532,-2877,452,111,28
26.72,1024,3480,-2156,9776,9469,-3834,2833,111,28
26.74,1025,1728,1272,12268,6941,-3360,5230,111,28
26.76,1027,-48,5236,14880,3183,-2767,6149,111,28
26.78,1005,-1880,8952,17928,-1601,-2453,5251,111,28
26.80,1010,-3276,12616,20108,-6198,-749,2782,111,28
26.82,1013,-6348,17420,23548,-10403,-1265,339,111,28
26.84,1016,-14016,24496,28408,-12581,-3262,-2847,111,28
26.86,1011,-22924,29584,27884,-11395,-217,-3958,111,28
26.88,1013,-32308,32276,25596,-16476,1036,1022,111,28
26.90,1014,-32768,19732,25648,-21890,6118,4372,111,28
26.92,1012,-32768,8896,25724,-14990,8755,5127,111,28
26.94,1014,-32768,7188,23712,-6616,7264,4130,111,28
26.96,1021,-25164,5016,19820,-3264,4778,3150,111,28
26.98,1028,-14096,1696,12896,-438,6918,2599,111,28
27.00,1018,-5572,156,4924,3735,11449,2962,111,28
27.02,1010,344,192,1784,6200,15006,2878,111,28
27.04,1022,3128,-552,2032,6060,16380,725,111,28
27.06,1014,3740,-2996,5056,6060,14472,-2127,111,28
27.08,1018,4188,-3616,5040,6370,10021,-1980,111,28
27.10,1016,4208,-3624,5132,4919,2919,1172,111,28
27.12,1010,5300,-2004,6756,4409,-2103,5812,111,28
27.14,1010,8372,636,7704,3423,-2509,10339,111,28
27.16,1013,8672,3712,8840,1621,-1455,13731,111,28
27.18,1031,6892,8052,8044,-715,-1513,14986,111,28
27.20,1026,4044,11932,10372,-4779,-2343,14105,111,28
27.22,1014,-4388,17488,19316,-8360,733,13175,111,28
27.24,1009,-16940,26224,31604,-12526,4443,13921,111,28
27.26,1018,-30664,32767,32767,-14679,3126,14954,111,28
27.28,1023,-32768,32767,28848,-26624,6656,14437,111,28
27.30,1012,-32768,22592,22708,-32768,9228,9726,111,28
27.32,1006,-30372,7900,19128,-31186,9888,4878,111,28
27.34,1026,-27564,1324,16148,-20691,6369,2518,111,28
27.36,1022,-24580,-1108,14252,-10948,3121,1156,111,28
27.38,1030,-21800,-1808,12528,-3007,1910,2016,111,28
27.40,1004,-17260,376,9808,3826,2048,3940,111,28
27.42,1007,-14840,2044,6872,7170,4195,4008,111,28
27.44,1021,-10352,1148,6060,9268,4365,3554,111,28
27.46,1016,-7896,1204,6472,12195,3219,1911,111,28
27.48,1022,-7156,2576,7044,14178,1709,-1079,111,28
27.50,1029,-4288,2828,7196,13794,-814,-4129,111,28
27.52,1033,-88,1676,8292,12256,-3748,-6723,111,28
27.54,1010,1512,844,9436,10043,-6487,-8261,111,28
27.56,1006,1064,532,10352,8376,-7198,-8893,111,28
27.58,1008,2596,1788,10800,6459,-5330,-7037,111,28
27.60,1016,392,4604,12420,2528,-3158,-6164,111,28
27.62,1011,-3500,6180,15672,-1415,-2716,-7453,111,28
27.64,1023,-5836,7660,17984,-4619,-4028,-8994,111,28
27.66,1007,-12360,10668,20668,-5996,-5890,-9075,111,28
27.68,1021,-20440,15696,23608,-4625,-9050,-7138,111,28
27.70,1022,-29248,22680,27800,-1207,-10829,-3405,111,28
27.72,1026,-29724,30900,25096,-4341,-8122,-1539,111,28
27.74,1028,-29848,26256,16308,-15461,-5709,-2675,111,28
27.76,1012,-27160,11940,14068,-13412,-2292,-1234,111,28
27.78,1021,-24368,7768,13300,-4080,1241,2411,111,28
27.80,1009,-20868,8028,10828,25,4232,5054,111,28
27.82,1020,-12456,6688,5456,3032,4702,8588,111,28
27.84,1010,-5908,4476,2132,6163,4879,10250,111,28
27.86,1006,-3628,3284,640,8514,4897,10821,111,28
27.88,1013,-2116,2796,1404,9242,4146,10758,111,28
27.90,1020,-636,1804,4204,7991,3667,10342,111,28
27.92,1014,-56,-136,6572,5540,3108,9898,111,28
27.94,1029,-1880,-808,8644,3993,2599,8841,111,28
27.96,1019,-2724,-492,11200,1955,3244,8234,111,28
27.98,1016,-4708,1176,13928,-648,4139,7171,111,28
28.00,1009,-7192,3304,16036,-2659,3611,4664,111,28
28.02,1021,-9888,5844,18944,-4395,1596,1355,111,28
28.04,1019,-12844,8576,21432,-5785,-1025,-1387,111,28
28.06,1007,-15464,11332,23296,-6431,-3590,-2114,111,28
28.08,1026,-17536,13296,24432,-5500,-5477,271,111,28
28.10,1006,-18964,15116,26796,-4083,-3571,4086,111,28
28.12,1024,-17972,16784,27604,-3046,3379,5761,111,28
28.14,1040,-20060,15652,25840,-2031,6937,5306,111,28
28.16,1022,-20812,10884,24916,891,3595,3451,111,28
28.18,1006,-16708,7076,23052,4695,-1693,991,111,28
28.20,1021,-10272,3340,18700,7073,-4829,-1390,111,28
28.22,1012,-6072,1164,14820,7961,-5275,-4201,111,28
28.24,1022,-6292,1104,12980,7177,-6011,-7256,111,28
28.26,1010,-4964,884,11380,5855,-9343,-10391,111,28
28.28,1013,-3288,296,10200,4043,-10650,-13877,111,28
28.30,1030,-4116,1016,9812,2072,-8045,-16675,111,28
28.32,1022,-8676,4028,10788,-347,-7261,-18300,111,28
28.34,1016,-10900,6060,10640,-2681,-10150,-18306,111,28
28.36,1024,-11396,9060,9120,-4161,-12529,-16425,111,28
28.38,1020,-15016,13720,9896,-6260,-10349,-13238,111,28
28.40,1029,-17328,17824,10304,-7327,-5605,-6010,111,28
28.42,1014,-19248,22468,10580,-5582,576,1082,111,28
28.44,1013,-17196,25160,7880,-5953,6593,6197,111,28
28.46,1014,-15504,21668,7600,-5327,9528,9341,111,28
28.48,1013,-14652,16524,8964,-1789,10012,11464,111,28
28.50,1021,-9656,11148,9172,1415,9482,13567,111,28
28.52,1017,-7516,6240,11868,4703,6401,14736,111,28
28.54,1024,-6548,5620,12788,7526,4450,13084,111,28
28.56,1024,-2484,5560,10532,7334,4787,10878,111,28
28.58,1035,-784,2140,9268,4629,7722,8336,111,28
28.60,1021,-5752,-1068,10260,3515,6093,6231,111,28
28.62,1005,-10672,-2256,14156,5835,-2210,4878,111,28
28.64,1022,-12144,164,19456,8474,-6487,4360,111,28
28.66,1022,-16436,1592,23716,7158,-4399,6324,111,28
28.68,1019,-22180,4204,26600,6153,-1952,7938,111,28
28.70,1026,-25440,8736,27312,3587,-460,4313,111,28
28.72,1001,-23648,8628,27392,1508,-2455,1314,111,28
28.74,1016,-19908,6984,24928,1515,-3996,-2304,111,28
28.76,1035,-14640,5604,20740,2465,-3182,-4340,111,28
28.78,1024,-12676,6560,19008,3591,-3856,-6744,111,28
28.80,1022,-9444,9740,16360,5665,-5037,-11303,111,28
28.82,1011,-2920,10840,10772,5643,-3044,-16444,111,28
28.84,1009,-6940,11568,9160,3603,-5276,-22124,111,28
28.86,1011,-10884,12396,10412,4116,-9115,-26924,111,28
28.88,1015,-9096,15900,10804,4015,-10193,-28202,111,28
28.90,1027,-7332,16552,9360,1204,-6928,-26451,111,28
28.92,1004,-9044,15180,7596,-672,-4201,-18864,116,29
28.94,1020,-12400,14496,5888,-1886,-815,-9882,116,29
28.96,1022,-13976,14948,2920,-401,-110,-762,116,29
28.98,1020,-9796,10624,3000,-1012,2027,6927,116,29
29.00,1019,-7968,7716,5548,4538,2633,14865,116,29
29.02,1014,-6368,11444,6460,10130,2244,20408,116,29
29.04,1021,-9944,13864,13764,11119,-2108,24339,116,29
29.06,1008,-14656,13904,18040,9815,-6119,24287,116,29
29.08,1014,-14620,11612,18528,6241,-6925,20746,116,29
29.10,1023,-1860,4724,12288,3447,1694,18737,116,29
29.12,1012,-3472,3308,9832,191,4690,14485,116,29
29.14,1018,-15128,3340,14720,-263,-534,7098,116,29
29.16,1004,-13640,2376,20700,746,-4462,2677,116,29
29.18,1007,-12164,2100,23792,-1305,-2543,2041,116,29
29.20,1008,-11952,3384,22688,-3314,993,1888,116,29
29.22,1011,-11504,5316,19568,-4492,5428,556,116,29
29.24,1008,-13464,5860,19556,-5255,6668,818,116,29
29.26,1015,-15020,5004,21264,-3545,4167,649,116,29
29.28,1025,-10332,6960,19124,594,1292,-91,116,29
29.30,1024,-7372,8032,15668,2106,2573,-2933,116,29
29.32,1015,-11256,8308,16252,1776,1984,-7646,116,29
29.34,1025,-12812,9292,14920,3311,-2760,-13349,116,29
29.36,1010,-5840,10860,8876,4766,-5795,-18949,116,29
29.38,1024,-5848,11508,8084,2742,-7929,-23678,116,29
29.40,1025,-10428,11224,9216,2400,-11560,-26079,116,29
29.42,1024,-11856,11760,10748,2141,-15030,-23170,116,29
29.44,1024,-16628,12764,14624,922,-18148,-13837,116,29
29.46,1012,-18024,17352,16072,1946,-15023,-4454,116,29
29.48,1012,-15488,22824,14208,-886,-6055,2259,116,29
29.50,1022,-13824,19244,11328,-8433,5357,6507,116,29
29.52,1008,-16456,12428,11828,-5524,6238,9767,116,29
29.54,1020,-10152,12112,11216,-1809,5641,12568,116,29
29.56,1014,-6484,10288,10596,-2947,8910,13959,116,29
29.58,1024,-8084,7608,11036,-3580,9052,13819,116,29
29.60,1015,-7640,6552,10192,-3095,6673,12024,116,29
29.62,1024,-4988,5788,7984,-4670,5453,9558,116,29
29.64,1021,-3708,3944,7380,-6519,4469,6725,116,29
29.66,1009,-5748,2912,9524,-7410,2226,3950,116,29
29.68,1015,-10452,3312,13484,-7675,-1724,2030,116,29
29.70,1009,-9656,2488,18244,-6729,-3903,2997,116,29
29.72,1009,-11680,2884,23292,-6521,-1613,6140,116,29
29.74,1023,-13256,5080,24648,-5754,2706,7947,116,29
29.76,1014,-15528,7268,24580,-4594,5105,8442,116,29
29.78,1029,-16836,6620,26624,-3911,6122,7750,116,29
29.80,1014,-17128,6404,26724,-577,5016,5641,116,29
29.82,1016,-12660,6220,22468,2317,3964,2372,116,29
29.84,1017,-10292,4520,17904,4379,3407,-2128,116,29
29.86,1013,-8452,4156,15052,6107,1375,-6414,116,29
29.88,1009,-6484,4004,12320,6536,-656,-10972,116,29
29.90,1015,-5464,3580,10340,6412,-4078,-14887,116,29
29.92,1028,-6844,4964,9668,6470,-7743,-18315,116,29
29.94,1011,-4928,5980,9160,5325,-7611,-19205,116,29
29.96,1024,-6740,5736,10232,2418,-4729,-16958,116,29
29.98,1028,-10924,7636,10704,1113,-3789,-11110,116,29
30.00,1034,-17604,10332,12852,-36,-4801,-4060,116,29
30.02,1009,-17428,13928,12988,131,-4830,2434,116,29
30.04,1007,-14816,15848,11436,-2457,-114,5475,116,29
30.06,1022,-17828,14180,12460,-3255,2574,7112,116,29
30.08,1016,-14988,14056,10164,25,1785,9609,116,29
30.10,1028,-11564,12936,10792,444,4002,10702,116,29
30.12,1010,-11144,11544,13716,-341,5286,10588,116,29
30.14,1009,-8324,9980,13104,-1830,4363,9191,116,29
30.16,1020,-3796,7244,8968,-3767,5322,6652,116,29
30.18,1028,-3948,3588,8428,-4705,4671,3385,116,29
30.20,1017,-7408,2516,11688,-2483,-32,985,116,29
30.22,1021,-8756,1984,16872,179,-5031,689,116,29
30.24,1024,-9632,1356,20900,2029,-5975,3230,116,29
30.26,1020,-10596,4268,21736,3424,-1854,5859,116,29
30.28,1017,-12784,6088,21656,2212,4253,5409,116,29
30.30,1015,-18292,4684,23848,823,4407,3354,116,29
30.32,1027,-16704,2816,23100,2563,-356,1714,116,29
30.34,1024,-13912,5184,21524,4318,-3136,161,116,29
30.36,1025,-14424,8340,20436,4805,-3211,-2515,116,29
30.38,1030,-8344,9808,17052,4534,442,-6652,116,29
30.40,1015,-3148,8528,11360,2069,3213,-11674,116,29
30.42,1008,-7964,7588,9180,2402,-1591,-17622,116,29
30.44,1020,-8520,7248,7908,5025,-8975,-19476,116,29
30.46,1028,-5724,6920,10560,6170,-11807,-15593,116,29
30.48,1014,-12284,9632,14912,5033,-10822,-6318,116,29
30.50,1024,-16580,14504,15200,3791,-5415,1892,116,29
30.52,1020,-13832,17648,11440,-698,4023,5206,116,29
30.54,1017,-17760,13140,10436,-7688,8217,4241,116,29
30.56,1025,-18776,9012,11428,-5797,2349,2488,116,29
30.58,1020,-11172,9676,12016,-4569,-797,2156,116,29
30.60,1010,-5408,9576,10468,-6668,2916,1721,116,29
30.62,1014,-5496,6304,9748,-8177,6152,344,116,29
30.64,1004,-7648,4852,10268,-6207,4531,-1055,116,29
30.66,1007,-8988,3976,12448,-2557,-609,-931,116,29
30.68,1024,-8520,3124,16068,908,-2854,568,116,29
30.70,1012,-8636,4352,17916,3386,-331,2249,116,29
30.72,1025,-10320,5044,18292,4373,4020,2884,116,29
30.74,1014,-13412,4864,20928,4791,4866,2724,116,29
30.76,1022,-16728,5668,23168,5637,1821,1500,116,29
30.78,1013,-13416,6800,20084,5587,588,-325,116,29
30.80,1021,-9744,6864,12664,4208,2968,-3204,116,29
30.82,1005,-10424,7212,10236,3043,4816,-6914,116,29
30.84,1032,-10448,7644,10300,2980,4505,-8588,116,29
30.86,1021,-11632,7540,10956,2797,1914,-7796,116,29
30.88,1025,-14456,7712,10768,2659,-4452,-3614,116,29
30.90,1016,-18176,11116,13072,3093,-9785,1966,116,29
30.92,1023,-14704,14728,14096,2201,-6117,5265,116,29
30.94,1019,-11240,13912,14932,-2697,-39,6104,116,29
30.96,1021,-13272,9556,14688,-4433,-126,6310,116,29
30.98,1010,-12228,9612,12268,-2860,-4655,6282,116,29
31.00,1027,-8960,9104,11764,-3980,-6070,5825,116,29
31.02,1031,-7324,6712,12596,-4501,-3668,5517,116,29
31.04,1023,-12648,3320,15488,-4749,1271,2903,116,29
31.06,1013,-14212,56,17176,-3167,2016,1942,116,29
31.08,1023,-13096,272,15996,-561,573,452,116,29
31.10,1022,-10488,-32,13884,1411,1042,-2454,116,29
31.12,1015,-7116,-1768,12352,4436,1555,-4572,116,29
31.14,1031,-5604,-60,12216,8631,-1026,-4934,116,29
31.16,1028,-9056,5336,15012,11918,-6816,-4993,116,29
31.18,1015,-8208,10132,15112,13711,-10398,-5117,116,29
31.20,998,-3292,13596,9976,11980,-5712,-5280,116,29
31.22,1023,-5784,13416,9956,7145,873,-6316,116,29
31.24,1024,-16036,9988,17236,3853,2205,-4585,116,29
31.26,1024,-21744,12324,21324,2103,275,900,116,29
31.28,1012,-20664,15140,17904,-1865,742,3670,116,29
31.30,1014,-18156,14196,13464,-6443,3280,2300,116,29
31.32,1006,-17368,12996,13184,-8959,2574,1018,116,29
31.34,1008,-14716,12484,12884,-9383,417,299,116,29
31.36,1027,-9660,11056,11928,-10747,1546,191,116,29
31.38,1028,-6976,8152,9988,-11307,4541,944,116,29
31.40,1017,-7900,5568,10960,-9581,4433,2310,116,29
31.42,1003,-9712,4244,13796,-6346,1149,3931,116,29
31.44,1038,-7908,3488,15792,-3245,-713,5121,116,29
31.46,1024,-5628,2364,15248,-645,720,6234,116,29
31.48,1008,-7248,476,15820,2494,1504,6727,116,29
31.50,1010,-12100,680,19488,6643,-829,5183,116,29
31.52,1007,-8640,1732,18720,9381,-1198,3123,116,29
31.54,1025,-6124,2192,14368,9352,1954,-666,116,29
31.56,999,-11420,2088,12392,9363,-261,-6106,116,29
31.58,1009,-15428,2004,14320,10316,-5323,-12485,116,29
31.60,1019,-15188,1564,15308,9577,-8006,-15887,116,29
31.62,1025,-16968,3580,16520,7562,-10213,-13075,116,29
31.64,1013,-23428,10960,15748,5208,-16002,-4788,116,29
31.66,1025,-20252,18636,15816,2256,-14223,1469,116,29
31.68,1018,-10564,18956,14448,-8102,-2282,4304,116,29
31.70,1019,-10624,14900,11220,-12383,4933,5861,116,29
31.72,1024,-6696,15764,5696,-11981,4994,6704,116,29
31.74,1013,-5044,14492,4864,-14164,6638,5092,116,29
31.76,1027,-7136,7416,8536,-13679,7361,5246,116,29
31.78,1013,-8880,1004,12440,-8634,5527,8289,116,29
31.80,1022,-9856,-1840,15652,-1823,4059,11623,116,29
31.82,1024,-10868,-296,15692,3635,6195,11523,116,29
31.84,1022,-13220,-172,15816,7165,7438,7669,116,29
31.86,1018,-18372,464,19120,10961,1963,1969,116,29
31.88,1020,-14200,4292,17748,14731,-3627,-3315,116,29
31.90,1022,-8404,7316,12136,14813,-2235,-8248,116,29
31.92,1022,-10104,7120,8988,12162,15,-11972,126,32
31.94,1020,-14276,3604,11724,10820,-1465,-12525,126,32
31.96,1015,-18188,5580,17880,9762,-5585,-9808,126,32
31.98,1019,-17276,10644,18548,5925,-6362,-6330,126,32
32.00,1006,-11912,12020,13620,-197,-230,-5215,126,32
32.02,1024,-11004,12412,11172,-5934,3545,-6258,126,32
32.04,1024,-8664,8632,11456,-9046,1904,-7210,126,32
32.06,1008,-7700,7296,12336,-9350,-354,-6819,126,32
32.08,1013,-7072,6000,12928,-9007,-1120,-4121,126,32
32.10,1012,-7864,4980,12356,-6491,414,432,126,32
32.12,1008,-9404,5156,12224,-3123,3328,3388,126,32
32.14,1014,-10852,5192,13268,131,6001,3689,126,32
32.16,1011,-12336,5772,14116,2951,5693,1993,126,32
32.18,1028,-12300,6532,13184,5488,2320,-629,126,32
32.20,1023,-11432,7080,11132,7149,-443,-3879,126,32
32.22,1015,-13824,7640,10644,7552,-2810,-5610,126,32
32.24,1010,-19676,8332,17788,6469,-8960,-3004,126,32
32.26,1015,-20504,12092,18124,4558,-11125,3649,126,32
32.28,1012,-17488,14268,16380,-430,-5674,7652,126,32
32.30,986,-15552,13876,16084,-6138,1057,7343,126,32
32.32,1012,-11608,11184,14620,-9159,4577,5383,126,32
32.34,991,-5964,8268,11360,-9933,4789,2722,126,32
32.36,1010,-6040,4568,11304,-8980,3446,829,126,32
32.38,1014,-9284,84,13580,-5251,-207,420,126,32
32.40,1013,-11436,-800,16640,-541,-4631,1885,126,32
32.42,1016,-13140,1728,18852,2760,-5650,3453,126,32
32.44,1012,-18316,5104,20320,3190,-4017,2812,126,32
32.46,1017,-16576,5024,17248,2969,-1969,1516,126,32
32.48,1016,-14244,5588,15232,2847,-794,-1169,126,32
32.50,1016,-11012,6240,13020,2696,415,-3386,126,32
32.52,1014,-7548,6880,9184,2996,1722,-4578,126,32
32.54,1014,-7568,7528,6640,2792,3313,-5444,126,32
32.56,1016,-9668,5468,6844,2436,3234,-4559,126,32
32.58,1028,-17028,6424,14132,2596,-3311,-945,126,32
32.60,1033,-19868,11052,18128,2173,-6716,2276,126,32
32.62,1022,-12800,12296,16204,-1935,-1343,5052,126,32
32.64,1010,-12016,11412,14680,-7703,5110,2992,126,32
32.66,1018,-8924,7168,11756,-10106,4486,1339,126,32
32.68,1021,-5056,4932,10652,-9585,478,604,126,32
32.70,1021,-5128,3164,12500,-8218,-1431,-35,126,32
32.72,1026,-6168,400,14424,-5204,-1414,962,126,32
32.74,1008,-8068,-292,16792,-88,-985,3104,126,32
32.76,1025,-11908,2864,18380,4310,581,3414,126,32
32.78,1008,-13852,4368,17172,6724,1931,1390,126,32
32.80,1011,-15080,2484,16908,8324,68,-1782,126,32
32.82,1024,-16084,2916,17572,10515,-5288,-5213,126,32
32.84,1010,-11732,4888,15964,10653,-8668,-7696,126,32
32.86,1026,-7132,6344,12052,8823,-7583,-8717,126,32
32.88,1014,-7268,7088,8404,6724,-4818,-9239,126,32
32.90,1036,-11268,4596,7072,5178,-1439,-8499,126,32
32.92,1035,-17864,3820,8580,5496,-1687,-4989,126,32
32.94,1025,-23972,7456,13696,6038,-6334,651,126,32
32.96,1008,-27200,13152,16232,4417,-5279,1435,126,32
32.98,1026,-20592,14512,13484,-936,1568,888,126,32
33.00,1009,-18000,10528,12592,-6860,6716,-2814,126,32
33.02,1019,-15140,4920,12464,-7504,3779,-4600,126,32
33.04,1013,-12292,3280,12984,-6715,-569,-5551,126,32
33.06,1010,-11808,1920,13140,-5737,-1930,-4167,126,32
33.08,1018,-11776,2044,13148,-3895,-1095,91,126,32
33.10,1026,-11752,3224,13268,-2361,2609,3553,126,32
33.12,1027,-11224,3376,14420,-1564,6673,5389,126,32
33.14,1016,-10496,2080,14348,-242,8615,5621,126,32
33.16,1021,-9884,1308,12832,1807,7831,4907,126,32
33.18,1024,-10040,2580,12500,3456,6914,2816,126,32
33.20,1023,-6872,4592,9780,4004,7440,193,126,32
33.22,1018,-6208,4640,7628,2889,9947,-3176,126,32
33.24,1005,-10408,2708,8944,2350,10644,-6002,126,32
33.26,1014,-15152,1316,12956,2822,5715,-6037,126,32
33.28,1015,-15888,1344,15820,3301,999,-4553,126,32
33.30,1010,-17240,4836,15348,1143,752,-4780,126,32
33.32,1026,-17780,5672,14904,-1455,1969,-6683,126,32
33.34,1022,-18004,6616,14592,-3189,2039,-9001,126,32
33.36,1023,-17056,5524,13260,-3960,615,-10543,126,32
33.38,1019,-14416,4476,11936,-2360,-521,-9731,126,32
33.40,1024,-14444,4380,11560,-567,1074,-7627,126,32
33.42,1025,-17108,4248,12204,1944,2492,-4981,126,32
33.44,1029,-16764,6336,13144,4722,2269,-3701,126,32
33.46,1016,-9480,7988,9212,5655,4979,-4177,126,32
33.48,1017,-7828,8148,5600,4224,6129,-6545,126,32
33.50,1016,-11128,4976,6320,3707,1173,-8027,126,32
33.52,1008,-11624,2924,8252,4745,-4392,-6528,126,32
33.54,1012,-12428,1152,10428,3629,-7772,-1018,126,32
33.56,1011,-18172,3096,13652,1792,-7754,4798,126,32
33.58,1016,-20092,6952,16472,-1315,-3178,6995,126,32
33.60,1012,-13940,6972,14556,-6009,1618,5940,126,32
33.62,1023,-14024,4100,11916,-8968,-224,2896,126,32
33.64,1016,-15000,1476,11612,-8142,-6870,687,126,32
33.66,1004,-12952,-560,12732,-5784,-10501,1362,126,32
33.68,1007,-13548,-2296,14476,-3138,-8113,3216,126,32
33.70,1000,-16928,-2116,15592,156,-5789,5040,126,32
33.72,1018,-22000,1324,17092,3092,-6064,4501,126,32
33.74,1005,-18000,2240,15708,5108,-6555,3704,126,32
33.76,1008,-14840,4480,15008,6569,-6895,1829,126,32
33.78,1006,-12380,6904,13696,7364,-6278,-1002,126,32
33.80,1002,-10432,8504,11108,6316,-5220,-3026,126,32
33.82,1011,-9756,6416,9412,5383,-5143,-2496,126,32
33.84,1024,-11860,4228,10004,5567,-5267,472,126,32
33.86,1017,-16996,5424,15324,4853,-6125,5729,126,32
33.88,1022,-13380,8828,13836,3812,-1838,10884,126,32
33.90,999,-9200,10928,9040,1666,5419,13705,126,32
33.92,1013,-7536,8672,5692,1152,8227,15188,126,32
33.94,1017,-5336,8096,4924,2641,8292,16484,126,32
33.96,1018,-3512,7408,4548,3119,8934,17089,126,32
33.98,1010,-7620,5740,9488,3532,7366,17267,126,32
34.00,1012,-13556,4900,15332,5011,4857,16154,126,32
34.02,1026,-19908,5140,23660,5143,6351,14138,126,32
34.04,1010,-32768,6608,30780,3,8481,10366,126,32
34.06,1008,-32768,4248,26752,-3208,4734,1919,126,32
34.08,1024,-27172,3412,20864,-2984,550,-8885,126,32
34.10,1002,-19508,4500,16300,-3461,-1446,-16169,126,32
34.12,1027,-10384,5980,9948,-1933,-4635,-19025,126,32
34.14,1014,-516,8196,4828,-1319,-7366,-17520,126,32
34.16,1007,5248,7180,2720,-2353,-8622,-8101,126,32
34.18,1021,-1116,8736,3024,-1333,-14834,5694,126,32
34.20,1011,-4432,14840,6796,4819,-20337,19719,126,32
34.22,1024,2072,21384,10488,9079,-12961,28963,126,32
34.24,1019,3148,20252,10620,5915,-6548,31960,126,32
34.26,1024,2448,13536,9316,5530,-10202,32767,126,32
34.28,1008,-56,13380,10640,9071,-15994,31088,126,32
34.30,1010,-8476,18164,24264,7194,-20247,28172,126,32
34.32,1024,-7284,16884,32767,2647,-18484,27288,126,32
34.34,1014,-9048,16340,32767,-1716,-9381,26817,126,32
34.36,1013,-12480,14704,27448,-8499,-467,22069,126,32
34.38,1010,-14596,9192,21144,-13324,1916,17164,126,32
34.40,1021,-16100,3608,18564,-14896,-372,10347,126,32
34.42,1022,-16364,2020,15004,-13978,-4727,3430,126,32
34.44,1018,-16060,5600,10212,-14339,-6735,-3818,126,32
34.46,1015,-15600,5788,4236,-14152,-4599,-8417,126,32
34.48,1008,-21040,7040,7480,-12277,-1402,-9624,126,32
34.50,1018,-25808,10876,15816,-9963,3726,-9481,126,32
34.52,1010,-20268,14856,14764,-7971,10785,-9709,126,32
34.54,1015,-15384,17392,10976,-8033,18812,-13970,126,32
34.56,1008,-14988,13668,11704,-7148,21949,-19261,126,32
34.58,1021,-14200,13752,17928,-140,16500,-22541,126,32
34.60,1025,-7124,17200,21204,2585,12611,-24430,126,32
34.62,1015,-728,14388,17164,2247,15009,-24125,126,32
34.64,1020,-2720,10400,13964,4187,16438,-22040,126,32
34.66,1006,-2868,8896,16660,7882,10088,-17389,126,32
34.68,1016,2160,7912,17704,10708,6290,-12245,126,32
34.70,1021,2772,7052,15960,11954,6754,-6923,126,32
34.72,1025,1496,5404,13476,14218,7385,-2334,126,32
34.74,1020,-5636,6432,16824,15586,5374,-862,126,32
34.76,1022,-10212,7812,22320,15425,2328,-2293,126,32
34.78,1011,-10768,8668,22408,10924,5247,-5371,126,32
34.80,1024,-19988,8332,20660,4013,2683,-9600,126,32
34.82,1017,-25036,6380,19456,429,-3965,-14385,126,32
34.84,1024,-20064,3156,18148,-3251,-6228,-14260,126,32
34.86,1014,-17080,2164,16036,-6908,-4986,-10098,126,32
34.88,1011,-14392,4464,12432,-7682,-5728,-6125,126,32
34.90,1017,-8280,6884,9020,-7203,-6788,-3603,123,26
34.92,1027,-2656,6712,7372,-6306,-7079,-1350,123,26
34.94,1014,-2412,5816,8968,-4258,-9297,586,123,26
34.96,1024,-5308,6936,13476,-1321,-11515,1610,123,26
34.98,1008,-9148,7664,18508,-29,-9808,3198,123,26
35.00,1025,-9840,5932,18484,490,-2813,5392,123,26
35.02,1014,-13828,5636,17616,10,3156,5518,123,26
35.04,1008,-19956,5100,19744,-720,2503,3033,123,26
35.06,1013,-19424,3596,21788,-1177,254,-259,123,26
35.08,1012,-16844,2768,19552,-2592,109,-3178,123,26
35.10,1018,-11688,2436,13832,-3239,498,-5655,123,26
35.12,1025,-11072,2916,11584,-4145,1438,-9587,123,26
35.14,1026,-11352,1292,11664,-3773,1771,-12461,123,26
35.16,1016,-11940,-140,10236,-2375,365,-12865,123,26
35.18,1020,-13336,-684,9268,-452,-2349,-10296,123,26
35.20,1024,-12560,2712,8548,2175,-5231,-4576,123,26
35.22,1014,-9492,8704,8156,3742,-3504,114,123,26
35.24,1018,-5876,12136,6288,3349,1154,2656,123,26
35.26,1013,-3672,11584,4016,2471,3616,3927,123,26
35.28,1015,-3964,10048,5256,3686,2410,4814,123,26
35.30,1008,-3604,8480,7400,6276,1471,7674,123,26
35.32,1011,-2384,6420,13012,8757,667,12874,123,26
35.34,1021,-128,4492,16224,11910,2764,18321,123,26
35.36,1028,-9740,9868,26096,15014,7247,19255,123,26
35.38,1018,-22792,19364,32767,14851,12666,16933,123,26
35.40,1022,-32768,25916,32767,9077,16207,9937,123,26
35.42,1021,-32768,27356,32767,4086,9353,630,123,26
35.44,1020,-32768,19912,32188,684,813,-4759,123,26
35.46,1005,-25448,13832,26320,89,1417,-3960,123,26
35.48,1011,-14668,10108,14988,-122,4604,-1696,123,26
35.50,1027,-5296,5632,6940,-126,8249,24,123,26
35.52,1028,932,-356,5340,-851,8036,2775,123,26
35.54,1010,4148,-5836,4512,-447,4135,4604,123,26
35.56,1015,6008,-7604,3444,877,1451,5080,123,26
35.58,1025,7676,-7624,2212,630,2830,5339,123,26
35.60,1012,7292,-8704,1132,-719,4398,5992,123,26
35.62,1010,4172,-8584,1648,-586,2220,6811,123,26
35.64,1025,496,-6564,3880,239,-743,6675,123,26
35.66,1017,-1476,-3576,6256,182,-2539,5630,123,26
35.68,1021,-3596,-368,8972,-1003,-2865,3756,123,26
35.70,1017,-9280,3996,13012,-2324,-2462,-523,123,26
35.72,1026,-18836,11436,18980,-5676,-3786,-6714,123,26
35.74,1029,-26664,18304,21692,-7234,-9769,-10788,123,26
35.76,1018,-27904,26808,23820,-4815,-15697,-10444,123,26
35.78,1028,-30224,32767,25956,-10525,-9450,-8584,123,26
35.80,1028,-29084,32767,20472,-19984,1387,-5582,123,26
35.82,1030,-30652,17384,15744,-23644,6403,-3413,123,26
35.84,1026,-32336,5784,17216,-15583,8019,-614,123,26
35.86,1016,-27584,868,14700,-4491,6604,3617,123,26
35.88,1009,-23228,1216,13288,3563,1726,5247,123,26
35.90,1012,-15160,3836,9828,9409,1862,5936,123,26
35.92,1012,-4600,3516,4796,10853,5323,6364,123,26
35.94,1025,936,1088,3628,11087,7698,5533,123,26
35.96,1022,1568,-1716,4556,10025,7643,3024,123,26
35.98,1022,1508,-5620,5720,8410,4158,553,123,26
36.00,1032,3380,-7368,6456,8169,-885,570,123,26
36.02,1025,4516,-5400,7656,7070,-3769,2053,123,26
36.04,1008,3292,-3020,9200,4576,-4657,3247,123,26
36.06,1024,644,-748,11336,2013,-4399,3935,123,26
36.08,1014,-912,1712,11924,-508,-2901,3682,123,26
36.10,1016,-3760,5400,14300,-2911,-2105,1540,123,26
36.12,1009,-14516,13560,19444,-5326,-4515,-3499,123,26
36.14,1012,-22748,21784,23952,-4652,-9412,-8763,123,26
36.16,1014,-24672,30292,24836,-5056,-12954,-8796,123,26
36.18,1010,-25948,32767,24736,-14058,-8681,-6935,123,26
36.20,1015,-25628,24164,21836,-23412,94,-4832,123,26
36.22,1018,-26492,9992,18324,-22115,8273,-1420,123,26
36.24,1015,-32768,-1016,18516,-15385,11886,2758,123,26
36.26,1013,-30960,-4288,13880,-3898,7484,5796,123,26
36.28,1004,-26336,792,11912,3973,-1396,5756,123,26
36.30,1010,-15084,4752,6940,7828,-1517,6002,123,26
36.32,1006,-4892,5200,2544,7887,2713,6074,123,26
36.34,1015,-1524,3308,1968,6472,7061,4948,123,26
36.36,1024,-652,508,2852,5626,7999,3271,123,26
36.38,1024,1312,-2172,4192,5634,5984,1622,123,26
36.40,1021,2088,-3284,6584,5867,2590,1728,123,26
36.42,1007,1652,-2140,8812,5729,-2059,2719,123,26
36.44,1016,1680,-1824,13428,8257,-3070,14,123,26
36.46,1024,-2884,2648,13416,9562,-5166,-1180,123,26
36.48,1022,-2888,3896,13556,2143,-5438,1911,123,26
36.50,1014,-6604,5060,14932,-7433,-4531,3518,123,26
36.52,1020,-10248,8152,20604,-10031,-7605,223,123,26
36.54,1024,-15208,11656,24940,-3488,-13902,-9389,123,26
36.56,1020,-17132,14916,24896,-7091,-14451,-7681,123,26
36.58,1014,-21012,17116,26176,-5274,-15409,-3033,123,26
36.60,1010,-28680,21236,28360,-5075,-9105,2078,123,26
36.62,1010,-31176,18964,26432,-10562,2406,4265,123,26
36.64,1021,-32768,10056,23976,-12309,7948,4543,123,26
36.66,1009,-32768,4704,20160,-7205,5075,5142,123,26
36.68,1027,-26884,2960,16852,-2124,1981,5715,123,26
36.70,1013,-17700,4172,11252,1782,4707,5217,123,26
36.72,1021,-10100,5384,4764,3824,9270,2935,123,26
36.74,1006,-3392,3964,1656,4191,10127,157,123,26
36.76,1006,100,2040,1488,5177,9237,-3996,123,26
36.78,1024,1532,-352,1016,5934,6852,-7959,123,26
36.80,1024,3084,-3296,3852,6130,1304,-8487,123,26
36.82,1024,2644,-4352,6868,6683,-5773,-7094,123,26
36.84,1029,468,-2292,9332,6460,-9780,-4763,123,26
36.86,1013,964,-1096,11892,5427,-8246,-2170,123,26
36.88,1023,2428,672,13668,3527,-675,-1273,123,26
36.90,1023,-728,3392,15448,-49,4214,-2248,123,26
36.92,1021,-10476,7280,18392,-3536,-1206,-5283,123,26
36.94,1011,-17792,9784,22836,-4392,-11330,-9447,123,26
36.96,1024,-21588,13772,29148,-3345,-16172,-10296,123,26
36.98,1025,-26676,18720,32767,-3206,-15619,-4100,123,26
37.00,1012,-30504,22076,32767,-6999,-4737,654,123,26
37.02,1024,-32356,15444,26564,-14376,3818,649,123,26
37.04,1023,-32768,4280,23268,-13085,5239,324,123,26
37.06,1019,-27872,-3040,18080,-7152,3091,2593,123,26
37.08,1009,-18756,-6984,13836,-1208,1856,4677,123,26
37.10,1012,-12324,-5828,11628,3338,1476,8261,123,26
37.12,1021,-5572,-1436,7500,6627,3517,11564,123,26
37.14,1010,-1632,980,4824,7539,5761,12061,123,26
37.16,1024,-988,108,3212,7186,6502,10258,123,26
37.18,1031,-724,-1396,1612,8405,4466,7590,123,26
37.20,1006,484,-2524,2160,9537,901,5841,123,26
37.22,1023,-116,-2908,4552,9723,-1295,4212,123,26
37.24,1009,-2956,-2192,7872,9641,-3420,2960,123,26
37.26,1026,-3552,-812,10004,8868,-5075,2430,123,26
37.28,1024,-4204,1564,12036,6803,-5252,633,123,26
37.30,1025,-7848,5432,15292,3461,-5696,-3678,123,26
37.32,1029,-14560,9652,21276,-1897,-9639,-9815,123,26
37.34,1013,-13708,10760,26084,-5475,-13642,-15811,123,26
37.36,1012,-14160,14832,31944,-10778,-11417,-20839,123,26
37.38,1024,-19420,18784,32767,-16589,-13227,-21784,123,26
37.40,1018,-25980,16924,30888,-18371,-15748,-18424,123,26
37.42,1012,-25396,13544,25616,-17818,-15356,-9805,123,26
37.44,1003,-19384,7232,23084,-18342,-7849,-4193,123,26
37.46,1008,-20000,-1168,21708,-14312,2501,1406,123,26
37.48,1026,-21056,-6744,17452,-5386,9123,6436,123,26
37.50,1016,-20924,-4692,15768,3976,8019,9798,123,26
37.52,1005,-17704,1176,11712,8825,5339,9964,123,26
37.54,1024,-9008,3488,3820,10186,6149,7727,123,26
37.56,1014,-2136,4308,-2012,10880,9970,4759,123,26
37.58,1028,2452,3800,-3696,9003,14340,3335,123,26
37.60,1010,4120,-120,-1608,5838,15811,3180,123,26
37.62,1018,4404,-3732,3732,5382,12558,4908,123,26
37.64,1021,2768,-4040,7388,5083,7622,7304,123,26
37.66,1020,432,-2064,9936,5138,1311,11025,123,26
37.68,1015,1720,76,12964,4492,-6239,15484,123,26
37.70,1010,1888,1300,19036,2944,-9585,16416,123,26
37.72,1001,-1064,4540,24152,57,-6345,13481,123,26
37.74,1009,-14084,11404,31036,-8970,-1478,5050,123,26
37.76,996,-20448,13072,32608,-16102,379,-3669,123,26
37.78,1023,-25268,13484,32767,-20946,2094,-9880,123,26
37.80,1010,-32768,8896,32767,-32768,9141,-13942,123,26
37.82,1020,-32768,-3828,32767,-32768,3855,-17553,123,26
37.84,1024,-32768,-5564,29080,-27954,-7108,-20812,123,26
37.86,998,-32768,-3260,18432,-20077,-13090,-22493,123,26
37.88,1020,-27068,-2060,10800,-14421,-7928,-18484,123,26
37.90,1008,-17188,-3180,2356,-6069,-3674,-14241,126,24
37.92,1023,-8372,1716,-2456,5887,-2021,-10660,126,24
37.94,1028,-2856,8796,-4696,14216,637,-8381,126,24
37.96,1020,-16,12928,-3936,17489,4779,-7745,126,24
37.98,1020,3396,12688,-2876,18120,7760,-6059,126,24
38.00,1024,5384,10864,-1440,17678,7581,-2107,126,24
38.02,1004,6520,7924,1852,16152,5081,3996,126,24
38.04,1029,7352,5388,5416,15084,1692,11155,126,24
38.06,1008,7820,4236,9704,14202,-1815,17809,126,24
38.08,1018,8600,4568,12384,13264,-2417,22265,126,24
38.10,1014,10540,5392,15024,11038,-622,25063,126,24
38.12,1003,4944,9248,22580,5181,2750,25102,126,24
38.14,1023,-5264,12852,32767,-3296,4186,21791,126,24
38.16,1008,-13664,14368,32767,-15177,4716,15774,126,24
38.18,1007,-19500,10204,32532,-25542,-3271,11607,126,24
38.20,1021,-24892,3940,32767,-28946,-6744,6005,126,24
38.22,1000,-31836,-1148,32600,-30272,-3088,3303,126,24
38.24,1011,-32768,-4676,29324,-27046,-4863,1723,126,24
38.26,1022,-32768,-4704,24604,-21002,-6160,-4439,126,24
38.28,1018,-32768,-5748,21028,-14770,-5320,-9144,126,24
38.30,1024,-32768,-6684,17520,-7008,-1613,-11144,126,24
38.32,1030,-31040,-3628,14480,983,2031,-12633,126,24
38.34,1025,-20128,960,11164,6070,4200,-13924,126,24
38.36,1030,-10400,4120,5724,10665,5339,-15378,126,24
38.38,1018,-636,8016,540,15637,6377,-15922,126,24
38.40,1024,5912,11616,-1564,17384,8327,-15433,126,24
38.42,1008,8720,9440,-1596,14437,10941,-13867,126,24
38.44,1032,10636,4728,324,14019,8902,-8910,126,24
38.46,1024,10548,4096,3776,14174,2594,-1915,126,24
38.48,1017,9540,4500,6972,12961,-2446,4713,126,24
38.50,1010,10748,3900,9752,11972,-2776,11481,126,24
38.52,1028,11092,4284,10612,10190,-212,16540,126,24
38.54,1022,9372,5300,12684,7651,87,19602,126,24
38.56,1024,6648,7540,17960,3743,-2813,21257,126,24
38.58,1031,-516,9900,27600,-1741,-7356,20610,126,24
38.60,1017,-8420,11808,32767,-8963,-10430,18678,126,24
38.62,1034,-16552,12372,32767,-15855,-12116,17835,126,24
38.64,1032,-28068,9856,32767,-20339,-13152,18505,126,24
38.66,1030,-32768,6264,32767,-21971,-6088,17950,126,24
38.68,1028,-32768,5640,32767,-23021,-1236,13682,126,24
38.70,1030,-32768,2048,32767,-20851,-3281,7240,126,24
38.72,1028,-32768,-3348,26416,-14248,-4316,1296,126,24
38.74,1033,-32768,-5660,21644,-6811,-3050,-2954,126,24
38.76,1024,-25884,-4972,15032,-1005,-1219,-7467,126,24
38.78,1031,-17512,-1932,7792,2935,619,-12088,126,24
38.80,1017,-9812,992,1200,6559,2732,-17008,126,24
38.82,1032,-3292,3468,-2588,9282,5464,-21236,126,24
38.84,1028,220,4172,-3672,9778,7551,-24413,126,24
38.86,1028,3120,3152,-3836,9958,7749,-25028,126,24
38.88,1028,4880,2788,-4136,9480,7692,-21767,126,24
38.90,1018,4436,3400,-2764,9354,7804,-16843,126,24
38.92,1023,4244,4828,1036,9019,7881,-10420,126,24
38.94,1020,6052,5288,4292,7880,8729,-4865,126,24
38.96,1024,4868,5132,6320,6714,8594,-95,126,24
38.98,1014,3420,5580,9076,6736,4217,3589,126,24
39.00,1024,4332,7448,14812,6809,10,5540,126,24
39.02,1020,4812,9824,23404,5151,-400,6404,126,24
39.04,1019,-6512,12552,32767,838,-4460,5970,126,24
39.06,1024,-13376,11796,32767,-2043,-10421,7638,126,24
39.08,1033,-22648,7940,32767,-5265,-10543,13482,126,24
39.10,1016,-31144,3512,32767,-9422,-1602,16435,126,24
39.12,1024,-32768,-1540,32767,-15249,3183,15512,126,24
39.14,1034,-32768,-8768,32767,-16752,-2161,11951,126,24
39.16,1030,-32768,-10876,32767,-14304,-9706,6815,126,24
39.18,1016,-31276,-7012,24904,-14417,-9451,1497,126,24
39.20,1009,-21404,-5960,12564,-16312,-3396,-3856,126,24
39.22,1014,-15004,-4696,984,-15313,294,-9608,126,24
39.24,1010,-9096,-952,-8864,-10759,2143,-13887,126,24
39.26,1014,-3396,5760,-12800,-5070,2899,-18427,126,24
39.28,1020,1228,6328,-13868,-3962,5226,-21309,126,24
39.30,1028,3340,4740,-13436,357,8489,-19277,126,24
39.32,1030,3740,5984,-10252,6769,11950,-14118,126,24
39.34,1015,2496,9956,-6316,12387,14546,-8257,126,24
39.36,1016,2936,10284,-1332,15923,14915,-3385,126,24
39.38,1035,3892,9076,4356,19617,10860,572,126,24
39.40,1011,5524,9884,9384,22133,2387,3693,126,24
39.42,1012,8580,11820,16812,22525,-6493,6733,126,24
39.44,1021,9612,12948,25052,20770,-8935,9496,126,24
39.46,1024,9052,13420,32767,16870,-7756,15324,126,24
39.48,1016,-8124,18396,32767,8088,-3766,19315,126,24
39.50,1015,-26636,15372,32767,-572,-1091,26477,126,24
39.52,1027,-32768,11080,32767,-10093,6907,26812,126,24
39.54,1023,-32768,2216,32767,-17116,6144,23391,126,24
39.56,1021,-32768,-8128,32767,-18000,384,15544,126,24
39.58,1018,-32768,-13104,30272,-14859,-4480,8484,126,24
39.60,1024,-31116,-11360,21468,-12711,-5676,2760,126,24
39.62,1017,-23524,-7464,10972,-11928,-2985,-2742,126,24
39.64,1034,-16892,-5160,1136,-8601,1124,-8811,126,24
39.66,1033,-10100,-1080,-5112,-3368,6309,-12928,126,24
39.68,1030,-5432,3260,-9272,213,9072,-15769,126,24
39.70,1025,-2416,4964,-9180,4115,8941,-17546,126,24
39.72,1013,1164,4720,-7848,8671,7984,-16890,126,24
39.74,1011,4012,6724,-6068,14993,5362,-12844,126,24
39.76,1020,6240,10628,-3956,19520,2581,-7679,126,24
39.78,1026,10192,11192,-536,20462,1219,-1214,126,24
39.80,1036,12688,8872,3856,20461,-30,6037,126,24
39.82,1015,14000,8080,7324,21454,-3817,12237,126,24
39.84,1013,13980,9000,14016,21022,-6317,17164,126,24
39.86,1005,13156,11508,23756,17131,-3666,20509,126,24
39.88,1022,-384,16636,32767,8294,-827,21523,126,24
39.90,999,-16368,19724,32767,-2613,1986,19990,126,24
39.92,1023,-32768,18588,32767,-13283,1054,21387,126,24
39.94,1005,-32768,15780,32767,-22612,5870,17646,126,24
39.96,1008,-32768,5860,32767,-26646,6100,11360,126,24
39.98,1009,-32768,460,32767,-25954,5864,3649,126,24
40.00,1024,-32768,-2544,28664,-21451,4845,-1976,126,24
40.02,1021,-32768,-1492,20072,-17999,2216,-9140,126,24
40.04,1020,-25404,128,8952,-12750,-4195,-15113,126,24
40.06,1017,-12104,2664,-3444,-5986,-3496,-20636,126,24
40.08,1011,-2988,9240,-12724,2268,1699,-23741,126,24
40.10,1013,-20,14836,-16676,6189,2236,-25251,126,24
40.12,1013,1892,13288,-15200,8168,942,-24359,126,24
40.14,1013,4424,10168,-11764,11970,4935,-19429,126,24
40.16,1022,4084,8764,-7276,15346,9818,-12949,126,24
40.18,1014,3508,6712,156,16706,10228,-5928,126,24
40.20,1019,-1136,5916,8496,16224,3941,-1327,126,24
40.22,1024,-6916,4628,14452,15269,-3108,-485,126,24
40.24,1015,-2944,4176,17272,14859,-2905,-656,126,24
40.26,1015,12,6044,20132,12020,3258,-1246,126,24
40.28,1008,-7572,10252,28636,8583,7167,-4619,126,24
40.30,1007,-8104,6760,32767,5436,4638,-2932,126,24
40.32,1016,-9068,2100,32767,6527,306,4432,126,24
40.34,1024,-11280,4100,32767,9855,-2279,12760,126,24
40.36,1032,-12368,8664,32767,13678,-4140,20318,126,24
40.38,1035,-11684,11488,26472,18331,-4951,27784,126,24
40.40,1040,-5024,11480,17820,22785,-3656,32767,126,24
40.42,1036,-6480,12080,15292,25878,-3785,32767,126,24
40.44,1034,-18072,14000,29036,24642,-10871,32767,126,24
40.46,1037,-28688,10692,32767,18201,-13299,31581,126,24
40.48,1016,-25516,-7972,27784,13724,-14884,26221,126,24
40.50,1029,-23728,-7432,22224,15858,-17808,16300,126,24
40.52,1033,-24556,4432,21724,13136,-16471,-2628,126,24
40.54,1036,-25372,7552,22332,-1725,-11080,-21193,126,24
40.56,1024,-22624,6620,21800,-17475,-7619,-32768,126,24
40.58,1036,-18696,10308,20296,-30307,-4150,-32768,126,24
40.60,1028,-14784,13516,18780,-32768,-2233,-32768,126,24
40.62,1023,-8028,17396,12508,-32768,-2126,-32768,126,24
40.64,1045,-2280,19756,8356,-32768,-2678,-32768,126,24
40.66,1031,-3532,19072,10224,-32768,-2812,-32768,126,24
40.68,1027,-8028,17160,13404,-29972,1555,-32159,126,24
40.70,1033,-16944,21872,13276,-16228,4817,-18663,126,24
40.72,1028,-9620,21868,5316,-8397,11034,-3999,126,24
40.74,1023,-7540,7884,1584,309,15361,6577,126,24
40.76,1027,-1276,48,1892,15842,11108,20059,126,24
40.78,1031,772,3440,5212,26067,5492,32272,126,24
40.80,1016,-2056,7268,9728,30006,-95,32767,126,24
40.82,1024,-10088,10088,17296,32090,-3090,32767,126,24
40.84,1009,-14164,10860,20052,27106,-3236,32767,126,24
40.86,1013,-9204,7208,22160,20973,5461,32767,126,24
40.88,1028,-6660,10004,18972,13734,15985,31003,126,23
40.90,1025,-20324,12776,18800,5562,13234,21773,126,23
40.92,1040,-14516,7364,18852,1797,998,14581,126,23
40.94,1015,-11788,1676,21680,-1280,-650,8149,126,23
40.96,1019,-11940,-1188,20520,-3180,3294,7956,126,23
40.98,1027,-15816,-3088,19924,-4852,7245,8514,126,23
41.00,1023,-20332,-4668,21000,-3428,6725,6675,126,23
41.02,1023,-21208,-2648,23088,-208,5000,1877,126,23
41.04,1024,-25872,4696,26160,212,3604,-5247,126,23
41.06,1008,-23024,6076,22480,359,1866,-12618,126,23
41.08,1016,-17540,5284,19724,-434,2086,-19841,126,23
41.10,1031,-14728,6004,18440,-2078,3023,-25482,126,23
41.12,1036,-13224,5912,16312,-3189,1240,-29918,126,23
41.14,1006,-10612,7684,14408,-3638,-2126,-32768,126,23
41.16,1013,-10224,10392,13444,-4696,-5499,-32768,126,23
41.18,1012,-8652,12176,13236,-5768,-6595,-32768,126,23
41.20,1020,-9420,13416,11000,-6228,-6822,-32768,126,23
41.22,1023,-12816,14752,9824,-5005,-9005,-29618,126,23
41.24,1017,-12064,15420,9072,-1246,-11348,-21546,126,23
41.26,1035,-10664,17892,7140,2109,-7050,-10696,126,23
41.28,1023,-8380,16084,4996,2593,644,875,126,23
41.30,1024,-7728,9972,5788,6230,4954,12988,126,23
41.32,1024,-7964,8188,6572,12472,4058,23815,126,23
41.34,1019,-4448,8812,8932,17581,765,31661,126,23
41.36,1026,-6812,11176,13332,20097,-2869,32767,126,23
41.38,1024,-9288,13152,13932,21739,-4151,32767,126,23
41.40,1038,-7880,13260,18340,19365,-1202,32767,126,23
41.42,1012,-4768,11160,19820,12067,6056,32767,126,23
41.44,1029,-1156,9240,12204,9137,4182,32767,126,23
41.46,1019,-10888,15212,12640,9681,-3175,24695,126,23
41.48,1008,-15472,17856,18128,3380,-5893,18043,126,23
41.50,1028,-17212,12660,22168,-4148,-5180,15118,126,23
41.52,1022,-18816,7748,27504,-5927,-5537,14749,126,23
41.54,1023,-17376,6136,26140,-6027,408,12823,126,23
41.56,1024,-20256,3460,24356,-6086,5639,8484,126,23
41.58,1028,-21840,1572,23296,-4697,6976,3176,126,23
41.60,1026,-22368,4264,23512,-2808,5618,-4373,126,23
41.62,1026,-18088,5284,21088,-2206,4627,-10591,126,23
41.64,1022,-15892,5220,18376,-3008,5287,-16405,126,23
41.66,1024,-12964,4196,15688,-3893,4868,-21175,126,23
41.68,1006,-8732,3292,14604,-4535,2537,-24872,126,23
41.70,1023,-7360,3384,14112,-4922,345,-28195,126,23
41.72,1030,-7820,4696,13404,-5145,-2524,-31094,126,23
41.74,1015,-11020,7592,12476,-6083,-5071,-32768,126,23
41.76,1019,-9796,10056,11604,-6051,-8842,-32768,126,23
41.78,1022,-7252,12972,12488,-5648,-10929,-32768,126,23
41.80,1036,-8976,16732,15020,-4807,-11788,-28234,126,23
41.82,1019,-8516,18804,15044,-1728,-11844,-18152,126,23
41.84,1026,-12816,22776,12752,1224,-6406,-8546,126,23
41.86,1034,-16988,24516,9840,-1037,947,-1210,126,23
41.88,1015,-14760,17436,9820,-1789,4853,6191,126,23
41.90,1030,-12580,13520,11736,4484,6191,11691,126,23
41.92,1013,-10232,12888,10960,8090,6871,16236,126,23
41.94,1020,-8500,10940,9768,10128,7215,20299,126,23
41.96,1010,-10072,10476,11580,11149,4776,21319,126,23
41.98,1018,-7480,9728,13412,10483,3690,19663,126,23
42.00,1015,-2644,7776,12132,8597,4684,17621,126,23
42.02,1023,-2420,5744,11724,7453,5457,14465,126,23
42.04,1015,-3472,4064,13272,7668,3442,12206,126,23
42.06,1028,-4804,4756,15604,9001,-995,11360,126,23
42.08,1027,-9804,6652,18108,8367,-4757,11672,126,23
42.10,1024,-13788,4932,22272,5008,-6394,14452,126,23
42.12,1026,-17044,2192,25448,2374,-4575,18924,126,23
42.14,1036,-21256,2040,28568,-418,-578,17447,126,23
42.16,1017,-28388,608,31044,-2675,-275,11691,126,23
42.18,1018,-23380,112,27012,-237,-3244,4868,126,23
42.20,1018,-15156,3284,22820,-149,-610,-1862,126,23
42.22,1016,-14416,4396,21052,-4644,5160,-6020,126,23
42.24,1014,-17068,4740,21532,-7696,5376,-10214,126,23
42.26,1008,-14848,5368,19676,-8946,3005,-15691,126,23
42.28,1015,-9500,5436,15368,-11206,2274,-21252,126,23
42.30,1011,-8756,5536,13384,-12964,-29,-27087,126,23
42.32,1024,-10028,7864,12788,-13356,-4178,-32768,126,23
42.34,1018,-8376,9412,12576,-13316,-8227,-32768,126,23
42.36,1018,-5364,11524,11380,-10791,-10482,-32768,126,23
42.38,1027,-5312,15216,11344,-7814,-12048,-32247,126,23
42.40,1021,-9540,17636,11936,-3934,-14816,-19491,126,23
42.42,1022,-13208,23280,12056,738,-9241,-5662,126,23
42.44,1014,-14584,25792,7436,-2808,1418,3885,126,23
42.46,1015,-14328,16432,4292,-150,8340,11190,126,23
42.48,1010,-9256,12288,4504,9573,7465,17069,126,23
42.50,1012,-2772,11376,7204,15071,6447,21912,126,23
42.52,1018,-4956,11100,12316,16728,4085,25928,126,23
42.54,1020,-12916,11428,16744,16730,-804,25861,126,23
42.56,1017,-13320,9408,18112,16008,-5102,23907,126,23
42.58,1027,-4144,6008,14404,15188,-1750,22054,126,23
42.60,1024,-5884,8052,13680,14051,191,18380,126,23
42.62,1018,-14704,12776,18524,11663,-2147,13161,126,23
42.64,1025,-12980,14172,21768,10515,-2692,10070,126,23
42.66,1029,-10940,11460,24256,5669,2824,10700,126,23
42.68,1019,-13376,6812,24948,1321,9521,12315,126,23
42.70,1016,-16232,2172,22296,-910,13120,11710,126,23
42.72,1016,-16632,-3096,19884,-1192,13354,9747,126,23
42.74,1028,-18040,-4076,18164,169,9808,5775,126,23
42.76,1030,-11468,-3776,15196,1769,7451,2347,126,23
42.78,1010,-6792,-4168,14436,-400,9931,-594,126,23
42.80,1010,-9908,-3360,16540,-2926,9752,-3650,126,23
42.82,1029,-12248,-1408,17848,-4805,5142,-7345,126,23
42.84,1029,-11040,1824,19160,-6432,-87,-12823,126,23
42.86,1033,-11784,8352,19912,-8943,-3898,-20311,126,23
42.88,1032,-15864,14672,24020,-13040,-8695,-27407,126,23
42.90,1020,-20128,21280,32032,-15037,-16965,-30433,126,23
42.92,1016,-18612,29240,32767,-15003,-18974,-28602,126,23
42.94,1026,-13168,32767,32767,-19185,-11531,-19858,126,23
42.96,1031,-15228,32767,31516,-31659,-1015,-13696,126,23
42.98,1032,-22880,17928,27532,-32768,3443,-9844,126,23
43.00,1021,-26580,8532,22808,-31034,1347,-7722,126,23
43.02,1015,-21680,2416,15564,-25252,-1600,-7224,126,23
43.04,1017,-15072,-444,10388,-20087,-2530,-8869,126,23
43.06,1024,-10900,1456,3484,-15633,-1437,-10889,126,23
43.08,1028,-4960,4956,-2940,-11507,3123,-12011,126,23
43.10,1027,-680,6572,-7092,-9915,6036,-13999,126,23
43.12,1011,2740,4044,-7908,-5381,5886,-14431,126,23
43.14,1015,5416,2092,-6748,568,6956,-12689,126,23
43.16,1026,4036,2848,-5300,6497,8841,-9317,126,23
43.18,1026,3980,4324,-3248,11325,8332,-4254,126,23
43.20,1020,7736,4796,-132,14387,6921,1175,126,23
43.22,1015,10236,3528,3100,15578,5553,6630,126,23
43.24,1013,7104,3488,6704,17456,1726,11033,126,23
43.26,1010,-944,5936,14644,20242,-4193,14218,126,23
43.28,1018,-7916,11668,30872,19985,-3919,15244,126,23
43.30,1024,-25752,17108,32767,12266,3072,16247,126,23
43.32,1017,-32768,19084,32767,2446,1517,19832,126,23
43.34,1013,-32768,10984,32767,-11413,2068,16219,126,23
43.36,1012,-32768,-3592,32767,-16174,2714,16150,126,23
43.38,1021,-32768,-11236,31724,-15887,1626,14934,126,23
43.40,1033,-26576,-12108,23168,-14060,-2049,12663,126,23
43.42,1030,-23116,-9548,18332,-12575,-6289,8967,126,23
43.44,1037,-17548,-4952,11428,-10681,-7790,5476,126,23
43.46,1028,-6008,-2064,812,-8318,-1744,1665,126,23
43.48,1025,2164,2016,-7372,-4741,6774,-1877,126,23
43.50,1027,4608,5728,-9916,-3732,14398,-5026,126,23
43.52,1027,6232,3744,-9776,-3636,19943,-6160,126,23
43.54,1021,8480,1572,-5928,2858,23942,-2412,126,23
43.56,1024,12580,3760,-652,9589,29465,5020,126,23
43.58,1015,15704,5488,2316,11906,32767,13342,126,23
43.60,1018,17596,7268,5212,10907,32767,19685,126,23
43.62,1016,13912,6688,2576,2166,32767,24217,126,23
43.64,1022,-6356,7908,10120,-6111,32767,25129,126,23
43.66,1025,-32768,10892,16804,-12568,30799,15395,126,23
43.68,1019,-32768,12844,13944,-14543,18640,1503,126,23
43.70,1009,-32768,13356,9076,-19561,1938,-7149,126,23
43.72,1016,-32768,8184,2472,-26014,-18863,-12177,126,23
43.74,1031,-32768,2400,-296,-20224,-32768,-18228,126,23
43.76,1022,-32768,3752,-1480,-16243,-32768,-17472,126,23
43.78,1031,-32768,-96,-2608,-14280,-26642,-14116,126,23
43.80,1025,-32768,-2416,-2748,-7757,-19778,-9704,126,23
43.82,1030,-26412,-828,-1596,660,-16967,-4809,126,23
43.84,1034,-17932,2408,-2352,8894,-12455,-1730,126,23
43.86,1010,-6932,6392,-2708,17056,-6634,25,126,23
43.88,1015,408,9680,-1052,21171,-8541,4,122,22
43.90,1021,4576,11196,-336,21522,-10891,-1815,122,22
43.92,1022,8524,8848,-1148,20297,-12272,-2807,122,22
43.94,1026,13664,6048,1244,19706,-12656,1913,122,22
43.96,1030,16748,6196,4668,17171,-5106,7355,122,22
43.98,1022,14480,5136,7956,10791,4206,14605,122,22
44.00,1020,9860,3524,11016,6397,12056,19842,122,22
44.02,1028,4676,3356,14152,2324,14615,22882,122,22
44.04,1020,-6964,5088,19944,-2247,15973,21176,122,22
44.06,1032,-21540,8896,22860,-8319,22672,12286,122,22
44.08,1029,-32768,10416,24128,-16296,27292,1599,122,22
44.10,1016,-32768,7660,20800,-22606,7171,-6724,122,22
44.12,1012,-32768,3944,15764,-20133,-9258,-14091,122,22
44.14,1014,-32768,4776,11336,-15002,-10156,-16584,122,22
44.16,1011,-32768,6684,8136,-10973,-757,-15305,122,22
44.18,1014,-32768,7000,3744,-6222,3185,-14539,122,22
44.20,1016,-32768,8148,1880,1025,-4732,-12072,122,22
44.22,1017,-27696,8664,-764,6462,-12099,-8806,122,22
44.24,1032,-16856,9232,-2828,13407,-12717,-6327,122,22
44.26,1034,-5500,9256,-2604,18942,-10145,-4169,122,22
44.28,1019,1916,9592,-1016,23964,-7735,-3236,122,22
44.30,1029,6272,10812,220,25391,-9233,-1993,122,22
44.32,1018,9316,8832,1108,21699,-15051,-581,122,22
44.34,1024,11708,4720,2256,17268,-20584,2985,122,22
44.36,1024,13708,2416,6068,13890,-22617,7412,122,22
44.38,1030,12200,2492,10740,11142,-22451,11933,122,22
44.40,1021,9564,2700,14268,8105,-19412,15301,122,22
44.42,1030,9996,1704,16752,5864,-11301,17414,122,22
44.44,1027,9644,2448,19280,3740,4537,18892,122,22
44.46,1023,2908,7988,27248,-627,23005,20709,122,22
44.48,1017,-10652,15564,31288,-11679,28940,17766,122,22
44.50,1022,-30320,16620,29744,-21948,10314,8916,122,22
44.52,1017,-32768,17048,28980,-19550,-8304,-5166,122,22
44.54,1022,-32768,18720,25688,-21777,-7937,-8077,122,22
44.56,1025,-32768,14004,24640,-22530,-834,-5953,122,22
44.58,1022,-32768,9612,19792,-20104,2730,-9267,122,22
44.60,1024,-32768,9016,14952,-11245,-3268,-11966,122,22
44.62,1017,-32712,8044,11356,-6013,-5269,-12408,122,22
44.64,1012,-21588,4544,6092,-545,-3255,-13126,122,22
44.66,1024,-11416,2908,1644,6949,-4242,-13987,122,22
44.68,1026,-1508,5380,-1188,14866,-5988,-15491,122,22
44.70,1032,5544,9168,-2572,17821,-5413,-15745,122,22
44.72,1010,8332,8612,-3760,15714,-4254,-14106,122,22
44.74,1013,9860,5576,-4788,14513,-4574,-9733,122,22
44.76,1019,14932,3748,-2528,15912,-2446,-2792,122,22
44.78,1015,15660,4808,2056,17068,4090,5152,122,22
44.80,1015,10908,6628,5912,16017,7977,11002,122,22
44.82,1021,6516,5968,9692,12593,2058,14542,122,22
44.84,1017,7000,4260,15708,10280,-5866,16000,122,22
44.86,1029,6232,5212,23812,7033,-4430,17126,122,22
44.88,1034,448,9292,30780,903,2504,17801,122,22
44.90,1025,-10892,14316,32767,-7761,7373,14626,122,22
44.92,1029,-30716,17560,32767,-16969,682,10457,122,22
44.94,1034,-32768,18344,32767,-20632,-4146,5713,122,22
44.96,1033,-32768,16468,32767,-25915,-2620,1837,122,22
44.98,1028,-32768,10340,31384,-27449,-2426,-3524,122,22
45.00,1028,-32768,5384,24600,-22849,-4901,-6932,122,22
45.02,1031,-32768,5696,20540,-15458,-7323,-9254,122,22
45.04,1020,-26816,7176,15108,-9334,-7661,-11489,122,22
45.06,1029,-17384,6608,6200,-3387,-5426,-14171,122,22
45.08,1010,-10140,6912,700,3471,-3850,-15850,122,22
45.10,1020,-4696,7632,-1136,9543,-2460,-17584,122,22
45.12,1025,-1940,6820,-2280,14030,-438,-18700,122,22
45.14,1021,-416,5760,-3048,17715,1415,-18760,122,22
45.16,1010,2184,5828,-3684,21062,3149,-17152,122,22
45.18,1018,4364,6436,-3528,23770,3674,-14054,122,22
45.20,1020,5300,5492,-1092,25021,3887,-10887,122,22
45.22,1030,6880,4200,3752,25945,2030,-6309,122,22
45.24,1027,7392,4296,10192,24478,-3306,-1753,122,22
45.26,1018,6464,4360,15164,21557,-11338,2421,122,22
45.28,1027,7312,3788,18240,19768,-15852,6881,122,22
45.30,1030,5796,6860,25768,17325,-12118,12203,122,22
45.32,1030,-1036,15124,32767,11456,-2366,17690,122,22
45.34,1014,-20092,24356,32767,4687,-1765,22618,122,22
45.36,1020,-30812,30760,32767,2187,-2848,20176,122,22
45.38,1028,-29952,31892,32767,-7047,-2653,11300,122,22
45.40,1024,-30504,22756,30160,-17341,-3062,4563,122,22
45.42,1026,-28672,12484,28800,-19088,-3819,788,122,22
45.44,1016,-20656,5772,23364,-17189,-125,313,122,22
45.46,1017,-15188,3212,14456,-13460,4862,61,122,22
45.48,1026,-12580,5292,5916,-8544,5706,-1434,122,22
45.50,1017,-7644,4592,1140,-5408,5826,-3148,122,22
45.52,1026,-2896,3944,272,-3371,8817,-4871,122,22
45.54,1021,-3208,4332,2688,-3036,10698,-7605,122,22
45.56,1029,-4240,2948,4700,-2238,8168,-9728,122,22
45.58,1028,-4416,1160,6928,-455,3791,-11152,122,22
45.60,1024,-4844,1120,9264,436,151,-11120,122,22
45.62,1032,-3348,1500,11384,1216,-2860,-9836,122,22
45.64,1031,-2028,3596,14072,1906,-5291,-8328,122,22
45.66,1024,-1956,6296,16492,2236,-6516,-7531,122,22
45.68,1013,-2588,8128,17532,2446,-5913,-6514,122,22
45.70,1014,-3704,7908,20432,2013,-4080,-3649,122,22
45.72,1020,-7924,6484,24556,2189,-2120,1434,122,22
