Time,GRS,Ax,Ay,Az,Gx,Gy,Gz,HR,SPO2
0.00,990,-3408,-372,20452,393,-410,50,75,59
0.02,1000,-3476,-444,20420,395,-434,35,75,59
0.04,995,-3440,-396,20332,454,-454,33,75,59
0.06,1006,-3436,-428,20456,455,-411,75,75,59
0.08,1004,-3428,-368,20568,445,-378,43,75,59
0.10,1004,-3368,-336,20276,440,-359,55,75,59
0.12,996,-3404,-352,20412,426,-314,55,75,59
0.14,989,-3348,-424,20520,439,-215,59,75,59
0.16,996,-3460,-312,20312,482,-194,78,75,59
0.18,1010,-3504,-296,20424,496,-227,57,75,59
0.20,989,-3524,-336,20596,455,-346,74,75,59
0.22,999,-3460,-276,20396,438,-412,29,75,59
0.24,1006,-3400,-360,20388,453,-425,34,75,59
0.26,1005,-3444,-316,20560,437,-385,23,75,59
0.28,991,-3456,-424,20492,426,-347,37,75,59
0.30,996,-3576,-472,20412,408,-378,23,75,59
0.32,991,-3528,-284,20388,459,-382,65,75,59
0.34,986,-3480,-284,20440,427,-414,23,75,59
0.36,984,-3396,-416,20376,406,-381,55,75,59
0.38,987,-3484,-468,20276,412,-374,44,75,59
0.40,1003,-3492,-404,20448,444,-409,54,75,59
0.42,1007,-3416,-420,20404,467,-398,54,75,59
0.44,994,-3604,-416,20304,464,-416,54,75,59
0.46,997,-3508,-356,20436,449,-450,44,75,59
0.48,1003,-3512,-440,20392,388,-466,27,75,59
0.50,1004,-3400,-340,20348,416,-432,8,75,59
0.52,1007,-3468,-496,20420,453,-385,50,75,59
0.54,1008,-3428,-376,20384,450,-363,30,75,59
0.56,992,-3564,-336,20528,446,-359,50,75,59
0.58,992,-3472,-280,20412,423,-372,31,75,59
0.60,992,-3440,-380,20408,415,-371,0,75,59
0.62,1002,-3628,-320,20376,426,-403,76,75,59
0.64,992,-3564,-284,20444,463,-419,59,75,59
0.66,996,-3528,-344,20552,471,-485,22,75,59
0.68,1002,-3460,-392,20508,440,-468,14,75,59
0.70,999,-3436,-352,20464,420,-424,5,75,59
0.72,993,-3416,-400,20368,434,-392,30,75,59
0.74,996,-3508,-364,20304,457,-353,56,75,59
0.76,993,-3608,-396,20448,453,-407,45,75,59
0.78,996,-3508,-372,20276,476,-438,14,75,59
0.80,1004,-3524,-336,20556,448,-406,11,75,59
0.82,990,-3436,-380,20360,431,-434,16,75,59
0.84,1008,-3520,-300,20344,382,-460,21,75,59
0.86,1003,-3560,-392,20332,392,-524,-3,75,59
0.88,1009,-3556,-428,20416,415,-539,-33,75,59
0.90,997,-3352,-360,20704,488,-568,7,75,59
0.92,998,-3408,-280,20396,457,-522,14,75,59
0.94,993,-3424,-368,20480,392,-462,34,75,59
0.96,1002,-3508,-408,20416,377,-453,8,75,59
0.98,1004,-3360,-424,20484,371,-449,-17,75,59
1.00,1011,-3476,-372,20400,468,-452,19,75,59
1.02,992,-3460,-336,20436,465,-421,16,75,59
1.04,1006,-3444,-304,20500,459,-401,36,75,59
1.06,1004,-3512,-344,20312,461,-454,16,75,59
1.08,1010,-3492,-288,20424,415,-492,17,75,59
1.10,1010,-3464,-448,20484,430,-487,-17,75,59
1.12,1008,-3468,-372,20392,464,-482,25,75,59
1.14,993,-3416,-452,20408,474,-450,25,75,59
1.16,989,-3404,-328,20516,469,-418,26,75,59
1.18,1002,-3660,-304,20604,381,-440,-18,75,59
1.20,996,-3476,-472,20524,410,-505,-13,75,59
1.22,1000,-3400,-408,20480,451,-468,33,75,59
1.24,998,-3388,-288,20404,464,-407,48,75,59
1.26,1002,-3492,-328,20508,427,-440,43,75,59
1.28,1011,-3520,-340,20408,482,-493,14,75,59
1.30,996,-3396,-304,20404,456,-444,9,75,59
1.32,990,-3468,-304,20508,433,-383,38,75,59
1.34,999,-3464,-360,20392,413,-401,45,75,59
1.36,995,-3552,-380,20412,459,-466,20,75,59
1.38,988,-3528,-332,20552,470,-479,25,75,59
1.40,967,-3412,-272,20348,459,-446,30,75,59
1.42,970,-3376,-364,20440,427,-414,23,75,59
1.44,981,-3456,-276,20404,390,-397,24,75,59
1.46,998,-3456,-380,20300,412,-498,20,75,59
1.48,1002,-3364,-404,20316,446,-539,13,75,59
1.50,1005,-3468,-356,20476,434,-525,18,75,59
1.52,999,-3408,-396,20504,457,-478,37,75,59
1.54,1000,-3392,-224,20508,386,-464,51,75,59
1.56,1000,-3460,-340,20348,385,-474,23,75,59
1.58,982,-3412,-364,20512,390,-517,13,75,59
1.60,987,-3292,-484,20444,449,-487,40,75,59
1.62,990,-3448,-416,20460,482,-423,42,75,59
1.64,987,-3556,-344,20428,474,-376,35,75,59
1.66,992,-3492,-320,20480,474,-417,32,75,59
1.68,993,-3400,-308,20460,426,-432,10,75,59
1.70,1007,-3532,-336,20320,394,-484,-12,75,59
1.72,1008,-3364,-476,20484,423,-502,-29,75,59
1.74,1004,-3304,-384,20460,447,-455,23,75,59
1.76,1004,-3420,-360,20500,462,-417,31,75,59
1.78,1012,-3508,-384,20488,401,-408,17,75,59
1.80,991,-3500,-364,20396,389,-438,-17,75,59
1.82,1003,-3532,-408,20272,419,-476,16,75,59
1.84,1019,-3412,-304,20412,463,-464,29,75,59
1.86,1022,-3404,-380,20468,465,-471,24,75,59
1.88,1005,-3420,-384,20436,448,-457,19,75,59
1.90,1015,-3296,-320,20544,441,-416,-10,75,59
1.92,1022,-3352,-268,20356,409,-387,15,75,59
1.94,1006,-3376,-424,20500,421,-401,11,75,59
1.96,986,-3528,-388,20584,455,-447,8,75,59
1.98,1000,-3416,-396,20524,456,-453,-12,75,59
2.00,975,-3384,-304,20456,454,-447,15,75,59
2.02,982,-3268,-320,20452,476,-413,24,75,59
2.04,1004,-3364,-360,20448,423,-429,36,75,59
2.06,1008,-3524,-440,20420,404,-458,9,75,59
2.08,1013,-3440,-408,20340,432,-515,29,75,59
2.10,1000,-3396,-396,20408,417,-506,41,75,59
2.12,1002,-3304,-392,20392,442,-505,-18,75,59
2.14,1006,-3332,-452,20548,452,-504,9,75,59
2.16,992,-3356,-356,20376,461,-436,34,75,59
2.18,995,-3488,-312,20436,391,-368,33,75,59
2.20,1004,-3424,-304,20392,367,-427,18,75,59
2.22,993,-3452,-376,20376,359,-510,12,75,59
2.24,1006,-3352,-492,20588,478,-524,-2,75,59
2.26,996,-3296,-496,20396,453,-442,14,75,59
2.28,999,-3312,-336,20536,478,-327,50,75,59
2.30,1007,-3432,-360,20572,430,-376,51,75,59
2.32,1003,-3608,-340,20424,435,-492,-45,75,59
2.34,993,-3404,-436,20456,431,-589,-22,75,59
2.36,1009,-3372,-372,20380,460,-510,10,75,59
2.38,1016,-3344,-448,20496,460,-449,29,75,59
2.40,1012,-3364,-396,20440,454,-387,59,75,59
2.42,998,-3492,-372,20540,430,-434,28,75,59
2.44,994,-3472,-356,20440,391,-497,38,75,59
2.46,970,-3396,-400,20508,421,-498,-3,75,59
2.48,993,-3344,-376,20456,442,-490,11,75,59
2.50,999,-3400,-332,20552,460,-474,54,75,59
2.52,998,-3300,-392,20472,457,-483,20,75,59
2.54,1002,-3388,-388,20492,439,-454,-2,75,59
2.56,1015,-3148,-408,20496,399,-400,21,75,59
2.58,1010,-3356,-464,20548,428,-414,28,75,59
2.60,988,-3360,-384,20368,454,-432,20,75,59
2.62,1000,-3532,-348,20332,467,-423,17,75,59
2.64,994,-3360,-308,20476,453,-433,13,75,59
2.66,1000,-3408,-336,20380,431,-464,12,75,59
2.68,1008,-3432,-452,20360,424,-489,4,75,59
2.70,987,-3296,-292,20524,457,-462,32,75,59
2.72,984,-3360,-380,20388,441,-395,22,75,59
2.74,999,-3448,-312,20524,429,-421,41,75,59
2.76,994,-3448,-296,20408,437,-425,29,75,59
2.78,1006,-3344,-288,20416,389,-490,5,75,59
2.80,994,-3424,-420,20484,445,-535,0,75,59
2.82,991,-3292,-380,20440,459,-488,29,75,59
2.84,1006,-3308,-360,20436,429,-400,26,75,59
2.86,995,-3416,-428,20424,389,-369,22,75,59
2.88,992,-3396,-356,20520,383,-455,8,75,59
2.90,1004,-3416,-396,20472,391,-528,10,75,59
2.92,1001,-3400,-352,20516,447,-529,13,75,59
2.94,1001,-3372,-440,20376,486,-463,42,75,59
2.96,1007,-3352,-340,20496,458,-394,48,75,59
2.98,1006,-3344,-412,20500,466,-355,26,75,56
3.00,1007,-3268,-304,20376,450,-379,41,75,56
3.02,996,-3484,-352,20416,402,-475,5,75,56
3.04,1004,-3424,-420,20424,435,-518,1,75,56
3.06,1009,-3416,-408,20480,487,-502,41,75,56
3.08,997,-3272,-356,20384,460,-423,15,75,56
3.10,1011,-3364,-340,20496,396,-377,24,75,56
3.12,986,-3332,-408,20408,401,-412,13,75,56
3.14,1002,-3388,-328,20488,417,-466,37,75,56
3.16,1001,-3384,-372,20528,436,-456,56,75,56
3.18,995,-3460,-328,20424,458,-456,52,75,56
3.20,993,-3292,-312,20432,450,-409,40,75,56
3.22,1003,-3352,-292,20388,416,-396,32,75,56
3.24,990,-3380,-388,20592,435,-420,8,75,56
3.26,991,-3380,-428,20412,430,-412,40,75,56
3.28,995,-3388,-400,20568,451,-434,12,75,56
3.30,1009,-3388,-380,20568,436,-427,30,75,56
3.32,990,-3320,-320,20620,455,-407,22,75,56
3.34,995,-3352,-284,20484,434,-426,4,75,56
3.36,1008,-3404,-432,20312,428,-436,29,75,56
3.38,994,-3312,-396,20456,440,-492,44,75,56
3.40,992,-3256,-416,20508,448,-441,31,75,56
3.42,1001,-3324,-292,20576,413,-427,54,75,56
3.44,997,-3404,-376,20404,382,-451,56,75,56
3.46,992,-3384,-420,20436,427,-536,-16,75,56
3.48,996,-3240,-428,20584,491,-527,7,75,56
3.50,1008,-3276,-260,20408,462,-385,29,75,56
3.52,1004,-3296,-300,20476,390,-304,66,75,56
3.54,997,-3512,-356,20352,352,-336,30,75,56
3.56,988,-3520,-332,20356,371,-480,44,75,56
3.58,998,-3272,-452,20472,433,-551,19,75,56
3.60,998,-3196,-380,20480,474,-482,13,75,56
3.62,1004,-3256,-424,20516,482,-384,47,75,56
3.64,998,-3324,-268,20300,452,-330,48,75,56
3.66,999,-3512,-352,20348,422,-343,41,75,56
3.68,987,-3520,-420,20516,417,-473,9,75,56
3.70,987,-3380,-436,20340,451,-503,-6,75,56
3.72,1005,-3284,-428,20564,462,-474,50,75,56
3.74,1001,-3292,-252,20456,472,-418,27,75,56
3.76,996,-3404,-328,20500,397,-402,34,75,56
3.78,988,-3360,-388,20484,402,-447,14,75,56
3.80,999,-3304,-400,20512,433,-442,40,75,56
3.82,992,-3396,-396,20428,445,-436,39,75,56
3.84,988,-3292,-296,20344,443,-396,53,75,56
3.86,1008,-3292,-352,20312,461,-410,26,75,56
3.88,1004,-3312,-324,20552,403,-395,50,75,56
3.90,995,-3376,-364,20516,397,-405,25,75,56
3.92,1005,-3380,-364,20376,436,-402,42,75,56
3.94,999,-3328,-384,20468,429,-379,36,75,56
3.96,985,-3416,-328,20452,465,-419,38,75,56
3.98,990,-3388,-372,20592,444,-449,32,75,56
4.00,997,-3276,-332,20412,419,-441,21,75,56
4.02,999,-3256,-380,20492,417,-402,17,75,56
4.04,1003,-3428,-316,20404,443,-389,47,75,56
4.06,996,-3344,-392,20376,446,-414,28,75,56
4.08,999,-3412,-440,20516,431,-489,33,75,56
4.10,999,-3300,-348,20484,463,-475,13,75,56
4.12,994,-3320,-288,20484,430,-413,55,75,56
4.14,1002,-3404,-348,20464,413,-363,32,75,56
4.16,994,-3452,-276,20400,420,-421,44,75,56
4.18,986,-3360,-312,20508,444,-475,-1,75,56
4.20,1008,-3292,-336,20596,460,-415,18,75,56
4.22,992,-3344,-304,20540,377,-356,29,75,56
4.24,992,-3440,-280,20420,396,-371,34,75,56
4.26,996,-3448,-356,20448,420,-447,21,75,56
4.28,987,-3284,-384,20472,487,-431,54,75,56
4.30,988,-3224,-404,20512,471,-375,46,75,56
4.32,1008,-3368,-344,20448,462,-314,64,75,56
4.34,1003,-3432,-304,20468,429,-332,21,75,56
4.36,993,-3460,-344,20380,409,-433,56,75,56
4.38,1000,-3472,-364,20440,411,-551,-12,75,56
4.40,993,-3248,-468,20456,461,-519,0,75,56
4.42,995,-3256,-436,20384,456,-416,28,75,56
4.44,986,-3288,-284,20444,464,-328,60,75,56
4.46,1004,-3376,-308,20416,428,-329,25,75,56
4.48,1005,-3500,-292,20448,421,-370,19,75,56
4.50,993,-3348,-324,20376,407,-439,25,75,56
4.52,995,-3344,-316,20468,451,-435,47,75,56
4.54,990,-3296,-356,20408,483,-390,38,75,56
4.56,998,-3348,-344,20416,457,-376,37,75,56
4.58,994,-3412,-344,20516,427,-355,32,75,56
4.60,996,-3360,-412,20468,423,-389,39,75,56
4.62,987,-3404,-396,20432,438,-369,54,75,56
4.64,1012,-3404,-404,20472,430,-361,61,75,56
4.66,1000,-3396,-340,20544,443,-368,32,75,56
4.68,1006,-3532,-312,20396,426,-400,54,75,56
4.70,1013,-3472,-364,20484,420,-404,21,75,56
4.72,996,-3372,-304,20500,419,-445,36,75,56
4.74,1014,-3388,-388,20340,455,-416,19,75,56
4.76,990,-3320,-284,20596,459,-421,51,75,56
4.78,995,-3468,-388,20392,419,-457,40,75,56
4.80,992,-3392,-404,20512,419,-437,12,75,56
4.82,989,-3372,-368,20468,442,-451,16,75,56
4.84,989,-3404,-304,20404,436,-361,37,75,56
4.86,993,-3412,-444,20236,424,-353,35,75,56
4.88,993,-3444,-388,20512,437,-395,53,75,56
4.90,984,-3296,-356,20416,408,-436,21,75,56
4.92,989,-3348,-368,20460,445,-445,38,75,56
4.94,996,-3376,-364,20368,477,-363,63,75,56
4.96,1000,-3408,-324,20564,425,-324,66,75,56
4.98,1003,-3552,-284,20488,433,-393,54,75,56
5.00,1000,-3476,-292,20504,414,-483,23,75,56
5.02,989,-3348,-456,20504,434,-565,-4,75,56
5.04,1010,-3140,-352,20380,474,-474,10,75,56
5.06,997,-3312,-364,20520,414,-374,48,75,56
5.08,994,-3420,-252,20516,438,-382,35,75,56
5.10,989,-3500,-300,20468,418,-431,16,75,56
5.12,1006,-3348,-308,20328,392,-474,18,75,56
5.14,992,-3296,-348,20416,397,-428,28,75,56
5.16,998,-3456,-352,20420,450,-410,48,75,56
5.18,1002,-3400,-356,20384,462,-395,46,75,56
5.20,996,-3376,-416,20368,473,-405,68,75,56
5.22,992,-3296,-308,20516,451,-394,30,75,56
5.24,990,-3360,-308,20452,422,-371,46,75,56
5.26,996,-3420,-420,20472,435,-334,18,75,56
5.28,1008,-3528,-312,20540,458,-363,60,75,56
5.30,997,-3408,-304,20512,461,-430,39,75,56
5.32,993,-3436,-328,20516,411,-425,11,75,56
5.34,994,-3404,-436,20460,428,-414,35,75,56
5.36,1003,-3508,-324,20524,433,-419,29,75,56
5.38,1002,-3412,-372,20424,415,-418,49,75,56
5.40,1004,-3596,-340,20384,415,-473,67,75,56
5.42,992,-3464,-408,20492,433,-512,28,75,56
5.44,996,-3356,-408,20512,418,-487,10,75,56
5.46,996,-3460,-212,20448,412,-426,9,75,56
5.48,996,-3404,-324,20440,424,-443,2,75,56
5.50,1003,-3420,-360,20300,419,-449,36,75,56
5.52,1008,-3460,-312,20488,403,-481,14,75,56
5.54,997,-3340,-460,20564,404,-475,18,75,56
5.56,1008,-3308,-440,20592,385,-425,15,75,56
5.58,1003,-3348,-344,20548,428,-395,57,75,56
5.60,999,-3440,-328,20300,456,-385,44,75,56
5.62,992,-3392,-316,20404,462,-436,59,75,56
5.64,996,-3528,-320,20452,432,-471,2,75,56
5.66,1006,-3312,-376,20512,431,-480,11,75,56
5.68,1000,-3388,-384,20536,430,-467,-9,75,56
5.70,992,-3500,-412,20460,424,-472,22,75,56
5.72,995,-3332,-392,20452,424,-458,2,75,56
5.74,1006,-3356,-412,20416,461,-442,21,75,56
5.76,999,-3352,-340,20404,428,-412,19,75,56
5.78,989,-3472,-276,20304,423,-396,14,75,56
5.80,995,-3372,-360,20440,432,-422,15,75,56
5.82,978,-3456,-320,20384,432,-488,33,75,56
5.84,1003,-3372,-388,20364,461,-492,-1,75,56
5.86,1001,-3352,-292,20384,448,-456,46,75,56
5.88,1003,-3320,-336,20480,466,-409,8,75,56
5.90,1011,-3368,-380,20532,419,-390,7,75,56
5.92,1010,-3448,-400,20412,424,-368,17,75,56
5.94,996,-3332,-360,20512,458,-377,22,75,56
5.96,993,-3436,-416,20348,446,-398,11,75,56
5.98,993,-3448,-360,20512,433,-443,25,75,61
6.00,998,-3456,-388,20428,444,-498,20,75,61
6.02,1010,-3448,-404,20484,428,-486,3,75,61
6.04,996,-3404,-380,20504,477,-466,19,75,61
6.06,988,-3372,-408,20508,441,-486,5,75,61
6.08,986,-3320,-308,20352,431,-534,1,75,61
6.10,1006,-3400,-360,20412,452,-523,-12,75,61
6.12,1004,-3292,-344,20460,448,-508,-49,75,61
6.14,983,-3344,-268,20476,403,-502,-23,75,61
6.16,991,-3512,-356,20360,390,-522,-29,75,61
6.18,986,-3564,-360,20368,365,-634,-34,75,61
6.20,1005,-3396,-388,20440,373,-720,-52,75,61
6.22,995,-3376,-412,20524,420,-724,-38,75,61
6.24,1001,-3276,-368,20496,437,-706,-29,75,61
6.26,990,-3288,-408,20452,435,-667,-41,75,61
6.28,990,-3372,-412,20596,431,-622,-16,75,61
6.30,1007,-3296,-320,20436,404,-620,-31,75,61
6.32,1008,-3304,-336,20472,404,-712,-53,75,61
6.34,1003,-3204,-428,20528,407,-793,-61,75,61
6.36,991,-3224,-432,20648,412,-749,-86,75,61
6.38,988,-3052,-260,20564,397,-574,-38,75,61
6.40,984,-3272,-448,20528,380,-479,-5,75,61
6.42,986,-3300,-292,20420,413,-509,33,75,61
6.44,1010,-3308,-344,20468,399,-546,-22,75,61
6.46,1003,-3276,-280,20560,388,-696,-14,75,61
6.48,992,-3064,-460,20516,352,-699,-67,75,61
6.50,992,-3144,-448,20472,400,-660,-41,75,61
6.52,1002,-3140,-460,20484,438,-572,-96,75,61
6.54,1009,-3124,-292,20380,432,-528,-63,75,61
6.56,990,-3128,-432,20472,402,-484,-87,75,61
6.58,992,-3276,-356,20244,420,-436,-87,75,61
6.60,997,-3156,-400,20568,468,-450,-80,75,61
6.62,1000,-3148,-360,20404,511,-413,-52,75,61
6.64,989,-3080,-340,20468,530,-349,-47,75,61
6.66,990,-3192,-388,20548,467,-366,-43,75,61
6.68,987,-3220,-432,20340,461,-394,-53,75,61
6.70,995,-3216,-464,20380,515,-441,-39,75,61
6.72,989,-3136,-332,20428,473,-472,-6,75,61
6.74,989,-3300,-348,20460,404,-521,-23,75,61
6.76,1002,-3064,-372,20464,400,-593,-74,75,61
6.78,1010,-3052,-436,20440,481,-565,-40,75,61
6.80,993,-2972,-348,20416,493,-485,-8,75,61
6.82,990,-3056,-260,20512,381,-410,31,75,61
6.84,987,-3224,-448,20516,372,-435,21,75,61
6.86,1008,-3336,-328,20648,386,-520,-20,75,61
6.88,994,-3176,-508,20532,446,-594,-25,75,61
6.90,990,-2988,-424,20528,467,-608,-31,75,61
6.92,999,-3144,-508,20624,459,-523,-27,75,61
6.94,1000,-2992,-432,20588,479,-412,3,75,61
6.96,992,-3132,-424,20432,443,-336,36,75,61
6.98,994,-3128,-364,20540,430,-371,41,75,61
7.00,996,-3284,-316,20556,423,-548,14,75,61
7.02,986,-3148,-424,20380,435,-656,-14,75,61
7.04,992,-3032,-328,20448,442,-732,-31,75,61
7.06,988,-2960,-412,20420,414,-644,12,75,61
7.08,1007,-2920,-468,20616,375,-515,33,75,61
7.10,1007,-3136,-412,20432,361,-475,9,75,61
7.12,997,-3060,-504,20476,457,-544,-47,75,61
7.14,1002,-3032,-480,20444,502,-586,-78,75,61
7.16,1012,-2956,-500,20520,486,-455,-65,75,61
7.18,1010,-3016,-316,20500,439,-319,-50,75,61
7.20,997,-3060,-388,20460,385,-269,-54,75,61
7.22,989,-3108,-384,20468,434,-333,-29,75,61
7.24,1008,-3072,-404,20500,449,-457,-2,75,61
7.26,994,-3124,-452,20376,470,-431,-17,75,61
7.28,1002,-3096,-328,20604,488,-529,-6,75,61
7.30,996,-3008,-460,20420,486,-556,-45,75,61
7.32,989,-2948,-488,20456,530,-520,-50,75,61
7.34,994,-2956,-380,20524,491,-449,-59,75,61
7.36,1008,-3068,-264,20572,426,-307,-32,75,61
7.38,1007,-3128,-364,20504,364,-305,-18,75,61
7.40,999,-3272,-384,20544,378,-401,23,75,61
7.42,997,-3236,-412,20572,441,-568,35,75,61
7.44,1003,-3136,-404,20540,491,-683,65,75,61
7.46,1000,-2880,-348,20464,488,-660,32,75,61
7.48,996,-2888,-340,20448,434,-549,-36,75,61
7.50,988,-2904,-320,20444,344,-440,-22,75,61
7.52,1006,-3064,-348,20560,310,-338,17,75,61
7.54,996,-3192,-440,20532,379,-348,3,75,61
7.56,1006,-3068,-504,20500,486,-427,24,75,61
7.58,1004,-3052,-440,20580,558,-460,31,75,61
7.60,996,-2976,-384,20548,521,-415,10,75,61
7.62,991,-2952,-440,20540,494,-393,11,75,61
7.64,985,-2868,-484,20596,460,-277,25,75,61
7.66,994,-3164,-412,20496,431,-261,29,75,61
7.68,1000,-3284,-392,20576,427,-388,29,75,61
7.70,1006,-3220,-324,20576,403,-578,41,75,61
7.72,1005,-3104,-396,20560,453,-672,-1,75,61
7.74,990,-2916,-368,20476,428,-583,47,75,61
7.76,995,-2956,-436,20484,381,-428,63,75,61
7.78,1003,-3052,-420,20584,346,-474,83,75,61
7.80,996,-3260,-312,20440,402,-593,34,75,61
7.82,993,-3132,-348,20452,417,-710,1,75,61
7.84,1007,-2964,-400,20604,382,-758,-35,75,61
7.86,993,-2828,-416,20500,402,-627,-50,75,61
7.88,996,-2684,-508,20580,413,-460,-46,75,61
7.90,990,-2904,-484,20524,442,-255,-10,75,61
7.92,1011,-3060,-352,20536,472,-221,8,75,61
7.94,1000,-3212,-468,20504,526,-274,-37,75,61
7.96,989,-3172,-464,20452,563,-332,42,75,61
7.98,991,-2980,-256,20448,521,-322,30,75,61
8.00,988,-3036,-292,20516,474,-305,55,75,61
8.02,1004,-3120,-404,20500,478,-340,40,75,61
8.04,1007,-3052,-432,20512,507,-392,49,75,61
8.06,1013,-2924,-228,20584,491,-397,34,75,61
8.08,1009,-3032,-292,20508,425,-345,56,75,61
8.10,1009,-3056,-376,20364,404,-336,39,75,61
8.12,994,-3212,-428,20556,425,-362,59,75,61
8.14,1004,-3088,-440,20548,529,-428,57,75,61
8.16,996,-2964,-336,20548,483,-334,105,75,61
8.18,1013,-3104,-388,20408,437,-336,101,75,61
8.20,990,-3120,-308,20488,380,-346,63,75,61
8.22,986,-3088,-396,20424,411,-400,31,75,61
8.24,993,-2972,-372,20500,483,-396,52,75,61
8.26,997,-3004,-388,20556,478,-353,60,75,61
8.28,1005,-3016,-372,20560,444,-313,76,75,61
8.30,996,-3220,-264,20604,428,-309,65,75,61
8.32,991,-3132,-436,20384,422,-380,80,75,61
8.34,1001,-3104,-348,20432,442,-440,66,75,61
8.36,1005,-3100,-408,20496,443,-500,37,75,61
8.38,988,-2980,-424,20576,483,-474,41,75,61
8.40,996,-2936,-336,20480,495,-408,44,75,61
8.42,1002,-3068,-320,20460,434,-299,35,75,61
8.44,1011,-3116,-324,20560,362,-279,20,75,61
8.46,992,-3228,-384,20520,411,-356,-15,75,61
8.48,1005,-3076,-304,20496,427,-407,43,75,61
8.50,993,-2980,-368,20516,460,-415,11,75,61
8.52,1006,-3060,-360,20488,451,-348,30,75,61
8.54,1000,-3024,-264,20544,404,-332,15,75,61
8.56,997,-3248,-352,20556,376,-366,0,75,61
8.58,992,-3192,-428,20536,416,-442,16,75,61
8.60,984,-3020,-388,20476,463,-450,25,75,61
8.62,1010,-3084,-396,20508,466,-404,13,75,61
8.64,1004,-3072,-336,20620,424,-342,18,75,61
8.66,1009,-3044,-388,20428,420,-304,-10,75,61
8.68,997,-3164,-424,20532,426,-350,10,75,61
8.70,1002,-3216,-380,20464,439,-425,28,75,61
8.72,994,-3132,-292,20396,439,-467,44,75,61
8.74,995,-3096,-292,20456,456,-490,15,75,61
8.76,1006,-2956,-384,20520,446,-471,25,75,61
8.78,1007,-2940,-324,20524,449,-393,45,75,61
8.80,1006,-3040,-312,20416,433,-345,70,75,61
8.82,1002,-3160,-372,20464,405,-302,30,75,61
8.84,1003,-3172,-324,20568,393,-335,31,75,61
8.86,1009,-3144,-328,20252,377,-397,39,75,61
8.88,1006,-2992,-452,20436,463,-420,59,75,61
8.90,1008,-3124,-336,20572,468,-300,64,75,61
8.92,993,-3172,-272,20500,462,-278,66,75,61
8.94,1009,-3124,-252,20412,444,-292,76,75,61
8.96,1002,-3232,-372,20384,454,-363,37,75,62
8.98,997,-3184,-280,20488,443,-426,33,75,62
9.00,1013,-3112,-436,20540,452,-402,44,75,62
9.02,1005,-3008,-376,20576,459,-353,72,75,62
9.04,999,-3132,-416,20564,461,-329,48,75,62
9.06,1006,-3240,-356,20524,436,-331,25,75,62
9.08,994,-3344,-352,20376,415,-379,17,75,62
9.10,1006,-3140,-344,20452,424,-381,55,75,62
9.12,995,-3148,-436,20560,457,-381,26,75,62
9.14,1004,-3192,-388,20496,438,-388,35,75,62
9.16,1014,-3188,-444,20572,458,-383,21,75,62
9.18,1001,-3172,-376,20400,441,-399,18,75,62
9.20,1002,-3244,-316,20484,377,-397,12,75,62
9.22,1003,-3240,-332,20484,406,-403,15,75,62
9.24,1014,-3188,-336,20432,453,-458,19,75,62
9.26,1020,-3128,-412,20416,428,-480,14,75,62
9.28,1013,-3076,-360,20496,459,-445,-1,75,62
9.30,1008,-3044,-376,20644,456,-388,37,75,62
9.32,1014,-3324,-332,20468,402,-397,32,75,62
9.34,1014,-3236,-340,20528,398,-399,16,75,62
9.36,1008,-3080,-368,20496,431,-441,17,75,62
9.38,1017,-3144,-372,20568,460,-395,17,75,62
9.40,1013,-3092,-440,20492,461,-342,48,75,62
9.42,1010,-3236,-300,20560,446,-284,75,75,62
9.44,1004,-3148,-396,20548,430,-327,38,75,62
9.46,1004,-3204,-428,20492,406,-398,42,75,62
9.48,1000,-3212,-300,20504,412,-418,0,75,62
9.50,1004,-2984,-444,20528,469,-367,62,75,62
9.52,1011,-3220,-304,20456,456,-282,77,75,62
9.54,1012,-3360,-348,20524,416,-288,49,75,62
9.56,1006,-3224,-356,20516,424,-394,33,75,62
9.58,1003,-3180,-368,20552,419,-445,19,75,62
9.60,1002,-3216,-352,20508,436,-414,22,75,62
9.62,1006,-3104,-412,20456,471,-371,54,75,62
9.64,999,-3232,-356,20292,454,-342,34,75,62
9.66,996,-3224,-344,20604,448,-325,42,75,62
9.68,1012,-3212,-348,20520,439,-319,21,75,62
9.70,999,-3272,-352,20468,420,-295,54,75,62
9.72,1016,-3204,-424,20500,451,-289,70,75,62
9.74,1000,-3184,-304,20460,467,-275,22,75,62
9.76,1014,-3280,-308,20460,473,-251,73,75,62
9.78,1009,-3260,-276,20460,481,-221,83,75,62
9.80,1009,-3336,-308,20476,450,-241,49,75,62
9.82,1001,-3408,-320,20604,411,-379,41,75,62
9.84,1001,-3376,-332,20460,439,-493,2,75,62
9.86,1007,-3264,-416,20468,465,-488,6,75,62
9.88,1003,-3192,-292,20568,460,-440,7,75,62
9.90,1010,-3232,-280,20472,446,-389,13,75,62
9.92,1013,-3304,-340,20584,461,-372,36,75,62
9.94,1005,-3396,-336,20476,456,-376,56,75,62
9.96,1010,-3304,-376,20404,418,-387,26,75,62
9.98,1009,-3380,-252,20552,406,-397,17,75,62
10.00,1005,-3324,-264,20468,411,-406,32,75,62
10.02,997,-3272,-364,20568,440,-449,53,75,62
10.04,1008,-3240,-308,20448,410,-385,30,75,62
10.06,1014,-3308,-324,20444,346,-386,65,75,62
10.08,1020,-3312,-332,20564,373,-435,27,75,62
10.10,1010,-3264,-316,20424,380,-480,61,75,62
10.12,1018,-3284,-364,20420,407,-473,40,75,62
10.14,1001,-3284,-448,20556,420,-432,39,75,62
10.16,1015,-3304,-236,20496,400,-425,24,75,62
10.18,1010,-3308,-280,20420,407,-448,2,75,62
10.20,1001,-3224,-356,20460,393,-447,-19,75,62
10.22,1002,-3296,-312,20456,375,-435,-24,75,62
10.24,998,-3228,-388,20448,441,-425,6,75,62
10.26,1002,-3232,-408,20532,481,-385,-13,75,62
10.28,1003,-3132,-408,20400,531,-295,7,75,62
10.30,1016,-3196,-344,20500,486,-191,30,75,62
10.32,1020,-3384,-336,20344,423,-239,11,75,62
10.34,1010,-3500,-316,20328,450,-358,42,75,62
10.36,1002,-3508,-244,20560,463,-475,7,75,62
10.38,1002,-3356,-352,20496,455,-504,40,75,62
10.40,1001,-3240,-320,20440,427,-450,53,75,62
10.42,1004,-3396,-380,20428,377,-476,48,75,62
10.44,993,-3316,-372,20620,399,-509,19,75,62
10.46,1009,-3172,-324,20532,460,-492,37,75,62
10.48,1001,-3276,-320,20444,428,-395,53,75,62
10.50,1000,-3292,-392,20580,426,-375,42,75,62
10.52,989,-3232,-280,20484,463,-422,58,75,62
10.54,1009,-3312,-312,20264,458,-449,23,75,62
10.56,1019,-3336,-244,20352,435,-439,18,75,62
10.58,1002,-3296,-296,20352,421,-476,24,75,62
10.60,1002,-3336,-356,20516,448,-528,11,75,62
10.62,1002,-3352,-412,20400,446,-577,-2,75,62
10.64,1004,-3248,-324,20444,425,-598,8,75,62
10.66,1005,-3256,-420,20436,393,-567,-5,75,62
10.68,1005,-3272,-336,20380,367,-571,-25,75,62
10.70,1001,-3196,-504,20508,385,-546,-33,75,62
10.72,1005,-3156,-372,20476,452,-495,-14,75,62
10.74,1007,-3192,-364,20568,506,-420,22,75,62
10.76,1003,-3308,-452,20556,458,-422,38,75,62
10.78,1014,-3352,-352,20484,440,-435,16,75,62
10.80,1010,-3248,-316,20388,453,-472,6,75,62
10.82,1009,-3304,-272,20592,452,-485,21,75,62
10.84,1011,-3236,-392,20476,480,-416,45,75,62
10.86,1011,-3304,-384,20512,456,-371,35,75,62
10.88,1008,-3384,-392,20584,485,-403,13,75,62
10.90,999,-3248,-308,20556,417,-417,37,75,62
10.92,1013,-3292,-320,20460,348,-420,32,75,62
10.94,1006,-3364,-364,20520,381,-493,2,75,62
10.96,1010,-3204,-436,20588,526,-531,14,75,62
10.98,1014,-2964,-340,20548,523,-369,61,75,62
11.00,1000,-3320,-144,20424,399,-241,77,75,62
11.02,1007,-3640,-188,20488,304,-396,15,75,62
11.04,1001,-3480,-340,20360,341,-747,-70,75,62
11.06,1007,-3096,-468,20532,422,-788,-57,75,62
11.08,1011,-2900,-388,20464,489,-453,26,75,62
11.10,1000,-2896,-392,20416,480,-120,41,75,62
11.12,999,-3168,-452,20588,485,6,64,75,62
11.14,999,-3280,-312,20408,491,20,48,75,62
11.16,1007,-3348,-220,20460,429,-15,96,75,62
11.18,1006,-3460,-456,20352,410,-78,74,75,62
11.20,1000,-3536,-440,20460,562,-264,102,75,62
11.22,1012,-3468,-332,20376,690,-443,66,75,62
11.24,1014,-3256,-236,20572,602,-515,62,75,62
11.26,1002,-3048,-164,20660,493,-376,93,75,62
11.28,1006,-3244,-192,20552,320,-237,105,75,62
11.30,1007,-3476,-332,20448,294,-326,73,75,62
11.32,1002,-3416,-464,20200,395,-477,56,75,62
11.34,1016,-3348,-328,20364,502,-487,22,75,62
11.36,1012,-3344,-336,20312,568,-441,87,75,62
11.38,1006,-3164,-296,20428,566,-374,61,75,62
11.40,1005,-3252,-152,20544,526,-360,72,75,62
11.42,1000,-3460,-280,20380,421,-352,35,75,62
11.44,999,-3396,-220,20464,370,-434,-7,75,62
11.46,1001,-3372,-336,20404,407,-522,14,75,62
11.48,1002,-3200,-352,20452,419,-561,16,75,62
11.50,1007,-3240,-348,20436,456,-491,31,75,62
11.52,1005,-3252,-356,20444,458,-361,37,75,62
11.54,1010,-3320,-280,20464,421,-358,43,75,62
11.56,1002,-3340,-384,20484,447,-409,27,75,62
11.58,998,-3264,-316,20396,469,-349,11,75,62
11.60,1010,-3188,-248,20324,411,-203,16,75,62
11.62,1008,-3380,-392,20456,398,-132,12,75,62
11.64,1006,-3440,-304,20496,463,-279,35,75,62
11.66,1002,-3452,-420,20416,535,-375,36,75,62
11.68,1011,-3272,-284,20456,525,-412,31,75,62
11.70,1006,-3228,-228,20388,488,-298,36,75,62
11.72,1001,-3244,-320,20460,459,-229,23,75,62
11.74,998,-3368,-284,20532,452,-230,40,75,62
11.76,995,-3556,-332,20328,457,-336,21,75,62
11.78,1017,-3412,-300,20404,463,-442,-27,75,62
11.80,1001,-3364,-304,20500,457,-498,-11,75,62
11.82,1015,-3332,-288,20408,456,-411,13,75,62
11.84,1007,-3384,-312,20512,527,-366,70,75,62
11.86,1007,-3396,-152,20504,357,-314,58,75,62
11.88,1010,-3572,-336,20548,361,-359,63,75,62
11.90,1015,-3624,-292,20440,436,-574,67,75,62
11.92,1008,-3392,-284,20392,402,-635,31,75,62
11.94,1013,-3340,-352,20412,396,-552,30,75,65
11.96,1006,-3232,-328,20460,419,-466,5,75,65
11.98,1010,-3264,-344,20340,473,-328,52,75,65
12.00,1011,-3440,-348,20468,488,-246,72,75,65
12.02,1007,-3588,-236,20484,470,-317,79,75,65
12.04,1016,-3408,-264,20512,450,-518,22,75,65
12.06,1002,-3544,-308,20476,368,-628,13,75,65
12.08,1008,-3392,-304,20404,396,-637,12,75,65
12.10,1010,-3296,-336,20456,419,-539,24,75,65
12.12,1012,-3216,-336,20652,408,-460,-4,75,65
12.14,998,-3424,-388,20524,419,-413,10,75,65
12.16,1001,-3408,-264,20488,423,-483,2,75,65
12.18,1008,-3328,-328,20384,433,-509,-18,75,65
12.20,1015,-3296,-372,20456,467,-428,20,75,65
12.22,1001,-3144,-360,20376,479,-259,57,75,65
12.24,1006,-3404,-296,20364,446,-228,21,75,65
12.26,1014,-3448,-288,20564,452,-376,39,75,65
12.28,1002,-3424,-268,20532,508,-386,29,75,65
12.30,1016,-3348,-204,20472,500,-320,74,75,65
12.32,1012,-3384,-264,20456,410,-277,55,75,65
12.34,1013,-3556,-352,20472,422,-373,77,75,65
12.36,1010,-3544,-368,20392,530,-480,45,75,65
12.38,1016,-3492,-240,20620,489,-508,31,75,65
12.40,1007,-3400,-312,20324,430,-626,52,75,65
12.42,996,-3308,-280,20496,481,-572,12,75,65
12.44,1003,-3116,-268,20648,484,-446,67,75,65
12.46,999,-3292,-252,20464,407,-357,49,75,65
12.48,997,-3484,-260,20392,354,-391,54,75,65
12.50,1000,-3504,-276,20396,373,-536,6,75,65
12.52,1012,-3352,-308,20444,442,-600,12,75,65
12.54,1007,-3172,-288,20500,426,-541,-16,75,65
12.56,1011,-3232,-300,20376,398,-406,27,75,65
12.58,1006,-3340,-240,20592,376,-414,20,75,65
12.60,1011,-3520,-384,20536,417,-508,33,75,65
12.62,1014,-3400,-256,20356,412,-594,-23,75,65
12.64,1012,-3304,-236,20512,424,-623,-18,75,65
12.66,1017,-3236,-240,20508,446,-522,-5,75,65
12.68,1010,-3244,-300,20504,403,-412,22,75,65
12.70,1008,-3404,-220,20512,409,-419,12,75,65
12.72,1012,-3468,-224,20356,411,-549,-30,75,65
12.74,1015,-3540,-228,20372,406,-730,-66,75,65
12.76,1009,-3280,-280,20452,407,-746,-50,75,65
12.78,1018,-3104,-336,20596,366,-642,-21,75,65
12.80,1007,-3228,-316,20484,328,-541,-26,75,65
12.82,1018,-3364,-300,20476,343,-538,-42,75,65
12.84,1000,-3336,-356,20412,387,-591,-17,75,65
12.86,1012,-3272,-376,20372,421,-590,-53,75,65
12.88,1009,-3232,-304,20580,413,-599,-11,75,65
12.90,1017,-3268,-316,20576,414,-541,-45,75,65
12.92,1022,-3276,-360,20392,391,-549,-12,75,65
12.94,1015,-3352,-416,20508,401,-562,-24,75,65
12.96,1010,-3180,-368,20388,411,-542,-41,75,65
12.98,1006,-3160,-344,20420,393,-483,-30,75,65
13.00,1008,-3316,-264,20444,333,-502,-17,75,65
13.02,1006,-3364,-492,20452,388,-594,-35,75,65
13.04,1016,-3292,-412,20564,454,-652,-15,75,65
13.06,1004,-3120,-384,20568,493,-626,3,75,65
13.08,1015,-3064,-220,20464,416,-520,32,75,65
13.10,1003,-3164,-360,20452,400,-436,2,75,65
13.12,1012,-3284,-248,20388,407,-460,18,75,65
13.14,1019,-3224,-320,20448,445,-519,-54,75,65
13.16,1017,-3192,-392,20464,461,-564,-57,75,65
13.18,1007,-3148,-252,20460,418,-522,-46,75,65
13.20,1016,-3156,-336,20512,355,-471,-37,75,65
13.22,1023,-3376,-432,20520,375,-495,-30,75,65
13.24,1019,-3276,-368,20628,447,-611,34,75,65
13.26,1014,-3156,-400,20548,496,-638,39,75,65
13.28,1020,-3116,-344,20468,453,-605,-18,75,65
13.30,1026,-3160,-340,20520,414,-523,-17,75,65
13.32,1004,-3260,-284,20520,389,-420,-8,75,65
13.34,1008,-3280,-384,20528,418,-451,37,75,65
13.36,1005,-3252,-268,20460,400,-534,24,75,65
13.38,1016,-3224,-408,20476,431,-595,62,75,65
13.40,1006,-3020,-316,20672,457,-564,75,75,65
13.42,1002,-3004,-316,20476,430,-472,92,75,65
13.44,1006,-3104,-444,20548,421,-487,63,75,65
13.46,1018,-3128,-328,20448,435,-480,24,75,65
13.48,1014,-2908,-204,20492,408,-327,-11,75,65
13.50,1005,-3248,-368,20392,362,-315,-35,75,65
13.52,1006,-3452,-420,20308,456,-507,-93,75,65
13.54,1010,-3104,-316,20520,505,-578,-65,75,65
13.56,1018,-2924,-276,20764,408,-409,-27,75,65
13.58,1005,-3216,-320,20512,288,-252,62,75,65
13.60,1019,-3624,-408,20336,321,-345,36,75,65
13.62,1006,-3564,-472,20588,446,-807,69,75,65
13.64,1014,-3116,-416,20460,559,-1030,34,75,65
13.66,1018,-2704,-412,20536,586,-871,40,75,65
13.68,1014,-2748,-324,20728,459,-485,-22,75,65
13.70,1018,-2772,-340,20572,378,-136,-23,75,65
13.72,1015,-2944,-248,20452,330,4,-68,75,65
13.74,1024,-3280,-336,20528,323,65,-44,75,65
13.76,1011,-3424,-456,20460,386,-156,-8,75,65
13.78,1010,-3464,-356,20548,564,-537,-18,75,65
13.80,1021,-3172,-372,20432,568,-744,5,75,65
13.82,1012,-3004,-284,20664,489,-640,27,75,65
13.84,1021,-2896,-324,20524,365,-363,35,75,65
13.86,1008,-3144,-344,20392,393,-316,61,75,65
13.88,1018,-3280,-428,20396,453,-378,-21,75,65
13.90,1018,-3076,-412,20412,472,-458,3,75,65
13.92,1009,-3032,-356,20604,498,-402,6,75,65
13.94,1023,-3048,-272,20584,417,-293,47,75,65
13.96,1015,-3300,-248,20524,348,-355,80,75,65
13.98,1010,-3220,-372,20552,438,-542,61,75,65
14.00,1020,-3200,-344,20468,506,-639,46,75,65
14.02,1017,-2892,-368,20532,472,-514,21,75,65
14.04,1023,-2948,-284,20448,425,-289,-20,75,65
14.06,1013,-3188,-304,20368,380,-229,-19,75,65
14.08,1019,-3216,-460,20588,393,-302,-30,75,65
14.10,1021,-3216,-476,20496,533,-424,-34,75,65
14.12,1010,-3076,-404,20408,542,-389,-52,75,65
14.14,1024,-2944,-420,20612,476,-236,35,75,65
14.16,1011,-3024,-340,20484,493,-119,64,75,65
14.18,1016,-3240,-324,20608,513,-86,67,75,65
14.20,1022,-3220,-308,20548,481,-153,68,75,65
14.22,1009,-3248,-380,20420,451,-226,65,75,65
14.24,1023,-3268,-348,20448,503,-314,47,75,65
14.26,1015,-3180,-364,20452,534,-378,29,75,65
14.28,1018,-3212,-248,20648,535,-329,61,75,65
14.30,1022,-3152,-208,20528,439,-271,74,75,65
14.32,1009,-3284,-232,20456,377,-324,64,75,65
14.34,1015,-3376,-372,20452,378,-385,39,75,65
14.36,1020,-3252,-376,20476,459,-494,61,75,65
14.38,1010,-3272,-308,20552,448,-518,24,75,65
14.40,1020,-3292,-324,20500,416,-477,24,75,65
14.42,1015,-3188,-388,20456,383,-510,12,75,65
14.44,1009,-3248,-204,20512,360,-456,8,75,65
14.46,1016,-3304,-340,20420,361,-498,-19,75,65
14.48,1013,-3164,-340,20360,448,-504,-30,75,65
14.50,1024,-3092,-436,20684,473,-470,-18,75,65
14.52,1020,-3116,-280,20532,480,-318,9,75,65
14.54,1019,-3224,-284,20496,416,-231,-15,75,65
14.56,1015,-3276,-424,20440,407,-274,14,75,65
14.58,1007,-3396,-480,20392,460,-350,9,75,65
14.60,1006,-3180,-372,20520,468,-377,36,75,65
14.62,1023,-3228,-260,20532,473,-358,51,75,65
14.64,1023,-3248,-360,20540,429,-343,17,75,65
14.66,1021,-3240,-388,20460,427,-392,-3,75,65
14.68,1008,-3060,-328,20576,454,-412,7,75,65
14.70,1013,-3120,-428,20608,471,-310,44,75,65
14.72,1019,-3188,-368,20380,435,-241,86,75,65
14.74,1004,-3284,-304,20412,459,-298,60,75,65
14.76,1017,-3312,-420,20512,473,-399,71,75,65
14.78,1014,-3200,-324,20516,465,-431,57,75,65
14.80,1016,-3152,-324,20496,451,-425,66,75,65
14.82,1014,-3244,-244,20632,435,-385,89,75,65
14.84,1011,-3368,-408,20460,446,-396,56,75,65
14.86,1006,-3340,-348,20432,485,-420,47,75,65
14.88,1015,-3280,-360,20600,437,-407,44,75,65
14.90,1002,-3276,-292,20464,418,-390,77,75,65
14.92,1012,-3272,-336,20488,416,-416,59,50,59
14.94,1017,-3272,-384,20568,467,-415,71,50,59
14.96,1015,-3184,-276,20392,494,-363,43,50,59
14.98,1006,-3256,-336,20452,460,-284,67,50,59
15.00,1010,-3356,-252,20436,445,-355,51,50,59
15.02,1018,-3404,-240,20420,426,-426,39,50,59
15.04,1010,-3300,-264,20468,429,-553,2,50,59
15.06,1021,-3040,-284,20640,408,-499,-16,50,59
15.08,1019,-3172,-248,20524,403,-415,-12,50,59
15.10,1019,-3276,-392,20432,421,-391,0,50,59
15.12,1001,-3296,-284,20424,403,-380,-11,50,59
15.14,1014,-3344,-364,20528,437,-432,-8,50,59
15.16,1008,-3248,-396,20332,461,-402,-18,50,59
15.18,1003,-3196,-336,20592,453,-314,5,50,59
15.20,1010,-3144,-356,20424,496,-179,70,50,59
15.22,1021,-3320,-396,20500,518,-125,108,50,59
15.24,1014,-3332,-292,20372,538,-204,98,50,59
15.26,1021,-3428,-296,20512,483,-241,104,50,59
15.28,1016,-3548,-344,20452,441,-343,83,50,59
15.30,1015,-3312,-268,20452,423,-434,38,50,59
15.32,1016,-3472,-288,20584,418,-529,21,50,59
15.34,1006,-3284,-232,20424,450,-531,24,50,59
15.36,1006,-3228,-304,20360,442,-433,17,50,59
15.38,1003,-3352,-296,20324,426,-414,39,50,59
15.40,1004,-3376,-352,20440,412,-418,44,50,59
15.42,1013,-3320,-424,20544,450,-485,36,50,59
15.44,1016,-3356,-292,20540,454,-493,49,50,59
15.46,1006,-3184,-320,20484,395,-463,45,50,59
15.48,1009,-3240,-360,20664,401,-413,45,50,59
15.50,1009,-3252,-316,20396,420,-412,16,50,59
15.52,1017,-3232,-304,20424,440,-408,47,50,59
15.54,1021,-3276,-300,20512,471,-318,62,50,59
15.56,1019,-3344,-228,20404,448,-310,59,50,59
15.58,1023,-3420,-296,20420,439,-348,28,50,59
15.60,1010,-3376,-380,20596,444,-451,55,50,59
15.62,1013,-3324,-316,20428,458,-513,29,50,59
15.64,1012,-3256,-228,20548,484,-475,64,50,59
15.66,1000,-3132,-336,20616,421,-436,38,50,59
15.68,1006,-3432,-252,20596,416,-415,62,50,59
15.70,1017,-3404,-300,20452,397,-464,-10,50,59
15.72,1004,-3256,-340,20520,431,-490,2,50,59
15.74,1013,-3184,-388,20524,415,-459,-3,50,59
15.76,1018,-3276,-276,20416,351,-390,-19,50,59
15.78,1002,-3468,-356,20380,383,-446,-6,50,59
15.80,1006,-3456,-280,20396,404,-613,8,50,59
15.82,1006,-3356,-192,20536,412,-707,-13,50,59
15.84,1008,-3100,-404,20560,403,-682,-36,50,59
15.86,1015,-3136,-324,20524,417,-541,-22,50,59
15.88,1012,-3156,-336,20452,415,-391,10,50,59
15.90,1019,-3280,-296,20392,428,-347,-25,50,59
15.92,1013,-3412,-364,20460,445,-464,10,50,59
15.94,1012,-3316,-336,20452,447,-509,-9,50,59
15.96,1010,-3224,-336,20444,449,-497,-24,50,59
15.98,1004,-3124,-312,20476,417,-471,15,50,59
16.00,1009,-3200,-348,20392,440,-462,29,50,59
16.02,1008,-3248,-324,20368,447,-466,20,50,59
16.04,1021,-3268,-320,20572,441,-472,10,50,59
16.06,1003,-3156,-304,20468,419,-377,-9,50,59
16.08,1003,-3372,-296,20720,334,-439,16,50,59
16.10,1016,-3300,-356,20428,414,-474,29,50,59
16.12,1014,-3408,-272,20460,466,-556,4,50,59
16.14,1003,-3256,-340,20452,456,-504,39,50,59
16.16,1017,-3220,-396,20452,456,-483,46,50,59
16.18,1014,-3232,-316,20412,412,-462,12,50,59
16.20,1007,-3324,-372,20468,448,-467,18,50,59
16.22,1012,-3144,-252,20484,457,-466,7,50,59
16.24,1030,-3276,-376,20424,440,-467,15,50,59
16.26,1003,-3216,-324,20360,462,-436,17,50,59
16.28,1012,-3256,-208,20492,429,-416,29,50,59
16.30,1016,-3212,-396,20616,404,-446,24,50,59
16.32,1004,-3272,-440,20404,459,-465,30,50,59
16.34,1015,-3288,-368,20568,451,-488,62,50,59
16.36,1002,-3268,-268,20472,441,-482,63,50,59
16.38,1017,-3144,-272,20524,434,-475,36,50,59
16.40,1012,-3292,-268,20480,437,-468,16,50,59
16.42,1013,-3148,-320,20604,434,-451,-3,50,59
16.44,1024,-3188,-312,20564,447,-441,41,50,59
16.46,1014,-3172,-392,20504,433,-434,9,50,59
16.48,1015,-3292,-292,20556,418,-452,7,50,59
16.50,1008,-3200,-312,20388,448,-501,3,50,59
16.52,1014,-3296,-340,20480,389,-516,6,50,59
16.54,1013,-3376,-360,20488,372,-635,3,50,59
16.56,1006,-3220,-464,20480,422,-638,-26,50,59
16.58,1007,-3168,-324,20440,489,-628,8,50,59
16.60,1018,-3072,-328,20416,429,-509,13,50,59
16.62,1005,-3256,-220,20496,373,-489,30,50,59
16.64,1014,-3292,-312,20452,347,-536,-19,50,59
16.66,1017,-3272,-472,20532,401,-638,2,50,59
16.68,1001,-3156,-372,20372,494,-568,-26,50,59
16.70,1010,-3040,-264,20644,504,-513,12,50,59
16.72,1012,-3204,-284,20592,456,-388,4,50,59
16.74,1017,-3224,-332,20456,432,-450,-1,50,59
16.76,1013,-3164,-312,20488,416,-447,-18,50,59
16.78,1003,-3096,-280,20524,453,-521,-3,50,59
16.80,1002,-3140,-316,20576,434,-520,13,50,59
16.82,1014,-3128,-416,20576,471,-496,1,50,59
16.84,1003,-3116,-252,20508,459,-538,-8,50,59
16.86,1009,-3204,-384,20524,429,-480,9,50,59
16.88,1006,-3056,-320,20404,412,-494,-4,50,59
16.90,1008,-3128,-328,20408,411,-508,26,50,59
16.92,1010,-3132,-400,20504,432,-584,21,50,59
16.94,1006,-3120,-364,20452,457,-575,7,50,59
16.96,1010,-3092,-368,20400,469,-501,19,50,59
16.98,1022,-3064,-236,20644,392,-453,38,50,59
17.00,1019,-3076,-428,20560,362,-366,-17,50,59
17.02,1018,-3164,-300,20552,442,-405,27,50,59
17.04,1020,-3056,-276,20532,447,-442,47,50,59
17.06,1019,-3116,-292,20512,437,-443,41,50,59
17.08,1026,-3196,-404,20500,434,-492,27,50,59
17.10,1003,-3160,-348,20576,458,-445,28,50,59
17.12,1005,-3020,-360,20592,396,-391,48,50,59
17.14,1012,-3092,-260,20568,398,-437,32,50,59
17.16,1022,-3128,-360,20440,461,-519,14,50,59
17.18,1022,-3128,-332,20528,486,-532,11,50,59
17.20,1017,-3076,-328,20552,449,-478,51,50,59
17.22,1013,-3196,-300,20492,375,-423,17,50,59
17.24,1009,-3128,-324,20584,342,-474,15,50,59
17.26,1008,-3144,-348,20528,402,-562,16,50,59
17.28,1012,-3160,-368,20512,477,-569,-1,50,59
17.30,1014,-3012,-312,20444,452,-489,19,50,59
17.32,1011,-3068,-276,20520,448,-419,53,50,59
17.34,1000,-3084,-228,20488,421,-425,38,50,59
17.36,1016,-3220,-396,20524,408,-498,10,50,59
17.38,1009,-3200,-288,20440,471,-586,24,50,59
17.40,1015,-3032,-356,20620,457,-538,16,50,59
17.42,1000,-3020,-316,20536,484,-459,24,50,59
17.44,1008,-3124,-292,20440,432,-409,55,50,59
17.46,1015,-3140,-292,20504,418,-428,10,50,59
17.48,1014,-3068,-268,20524,418,-467,-4,50,59
17.50,1012,-2988,-272,20516,444,-461,10,50,59
17.52,1005,-3092,-372,20548,443,-394,21,50,59
17.54,1016,-3036,-380,20440,452,-318,27,50,59
17.56,1008,-2988,-316,20584,433,-265,28,50,59
17.58,1006,-3092,-360,20452,411,-266,15,50,59
17.60,1007,-3196,-384,20568,424,-331,18,50,59
17.62,1002,-3160,-360,20608,447,-395,20,50,59
17.64,1018,-3112,-320,20576,462,-401,40,50,59
17.66,1016,-2968,-320,20468,443,-343,63,50,59
17.68,1005,-3016,-304,20604,457,-309,25,50,59
17.70,1010,-3188,-272,20480,456,-313,33,50,59
17.72,1001,-3192,-240,20504,440,-343,55,50,59
17.74,1009,-3128,-312,20316,418,-454,23,50,59
17.76,1018,-3164,-444,20380,457,-474,57,50,59
17.78,1013,-3060,-312,20440,458,-450,20,50,59
17.80,1011,-3000,-292,20564,451,-340,63,50,59
17.82,1004,-3156,-308,20548,406,-318,75,50,59
17.84,1010,-3284,-296,20612,354,-421,48,50,59
17.86,1002,-3136,-348,20460,425,-515,27,50,59
17.88,1002,-3032,-296,20452,482,-487,59,50,59
17.90,1010,-3008,-324,20416,462,-411,54,50,59
17.92,1018,-3080,-324,20488,465,-364,63,50,63
17.94,1005,-3088,-380,20460,429,-379,65,50,63
17.96,1017,-3148,-316,20424,407,-413,71,50,63
17.98,1002,-3208,-276,20496,404,-444,69,50,63
18.00,1007,-3088,-304,20600,388,-463,59,50,63
18.02,1014,-3056,-376,20524,397,-509,80,50,63
18.04,1005,-3024,-416,20656,414,-513,52,50,63
18.06,1008,-3044,-340,20580,391,-483,60,50,63
18.08,1006,-3048,-384,20528,356,-441,51,50,63
18.10,1002,-3136,-360,20640,388,-433,66,50,63
18.12,1003,-3124,-348,20484,424,-403,52,50,63
18.14,1010,-2980,-304,20460,415,-333,59,50,63
18.16,1017,-3192,-416,20484,451,-328,65,50,63
18.18,1010,-3180,-336,20468,467,-373,80,50,63
18.20,1020,-3200,-244,20404,448,-389,52,50,63
18.22,1016,-3140,-328,20468,445,-467,51,50,63
18.24,998,-3200,-420,20352,472,-472,64,50,63
18.26,1004,-3012,-284,20520,479,-419,41,50,63
18.28,1008,-3056,-360,20364,463,-363,50,50,63
18.30,1002,-3088,-364,20576,474,-389,31,50,63
18.32,1009,-3148,-268,20564,485,-360,27,50,63
18.34,1023,-3276,-296,20500,438,-413,22,50,63
18.36,1013,-3092,-240,20448,438,-435,3,50,63
18.38,1004,-3076,-352,20316,465,-435,14,50,63
18.40,1013,-3096,-440,20380,473,-377,18,50,63
18.42,1004,-3124,-312,20476,413,-398,20,50,63
18.44,1019,-3236,-384,20388,394,-424,-8,50,63
18.46,1015,-3228,-392,20484,382,-438,27,50,63
18.48,1013,-3152,-284,20524,448,-472,14,50,63
18.50,1004,-3204,-396,20540,475,-434,21,50,63
18.52,1013,-3036,-276,20528,481,-414,47,50,63
18.54,1002,-3164,-248,20572,472,-396,12,50,63
18.56,1006,-3144,-336,20528,421,-427,24,50,63
18.58,1013,-3208,-340,20436,456,-460,-14,50,63
18.60,1013,-3144,-252,20492,445,-449,-7,50,63
18.62,1001,-3164,-284,20468,429,-428,12,50,63
18.64,1010,-3164,-340,20452,451,-447,-3,50,63
18.66,1012,-3140,-308,20364,413,-475,-1,50,63
18.68,1008,-3092,-308,20476,411,-452,8,50,63
18.70,1012,-3076,-328,20524,386,-451,8,50,63
18.72,1008,-3124,-364,20652,436,-432,16,50,63
18.74,1010,-3144,-376,20404,446,-434,18,50,63
18.76,1016,-3172,-252,20476,408,-480,-3,50,63
18.78,1010,-3180,-328,20556,427,-492,13,50,63
18.80,1006,-3144,-364,20488,415,-462,17,50,63
18.82,1014,-3092,-364,20540,424,-439,34,50,63
18.84,1003,-3188,-340,20504,402,-428,53,50,63
18.86,1001,-3172,-304,20380,426,-405,46,50,63
18.88,1013,-3052,-364,20560,447,-357,51,50,63
18.90,1007,-3032,-404,20440,452,-287,81,50,63
18.92,1001,-3140,-340,20524,473,-278,92,50,63
18.94,1014,-3120,-356,20448,446,-243,43,50,63
18.96,1007,-3096,-300,20596,462,-218,70,50,63
18.98,1006,-3160,-280,20452,393,-231,52,50,63
19.00,1004,-3268,-228,20468,416,-290,58,50,63
19.02,1013,-3344,-256,20616,409,-396,65,50,63
19.04,1016,-3120,-392,20440,441,-526,80,50,63
19.06,1002,-3076,-412,20580,459,-497,51,50,63
19.08,1018,-2980,-344,20512,461,-376,56,50,63
19.10,1013,-3048,-284,20580,442,-274,61,50,63
19.12,1006,-3288,-300,20368,468,-257,74,50,63
19.14,1004,-3252,-300,20560,464,-291,60,50,63
19.16,1007,-3260,-276,20440,454,-303,33,50,63
19.18,1014,-3276,-296,20648,477,-371,31,50,63
19.20,1004,-3092,-316,20516,519,-429,41,50,63
19.22,1006,-3196,-340,20440,476,-427,41,50,63
19.24,1012,-3172,-252,20552,451,-424,60,50,63
19.26,1017,-3328,-336,20460,424,-470,61,50,63
19.28,1009,-3340,-280,20416,409,-633,27,50,63
19.30,1019,-3192,-388,20448,427,-745,22,50,63
19.32,1022,-3020,-356,20472,462,-674,49,50,63
19.34,1022,-2832,-336,20464,481,-480,41,50,63
19.36,990,-3036,-264,20372,445,-316,59,50,63
19.38,995,-3252,-300,20432,370,-285,31,50,63
19.40,1011,-3384,-328,20376,399,-447,16,50,63
19.42,990,-3268,-352,20492,429,-577,-31,50,63
19.44,993,-3132,-364,20516,472,-509,15,50,63
19.46,1013,-2992,-324,20364,513,-408,42,50,63
19.48,1016,-3144,-272,20524,453,-300,10,50,63
19.50,1010,-3272,-276,20544,405,-273,-2,50,63
19.52,1011,-3284,-256,20424,406,-343,-22,50,63
19.54,1005,-3268,-296,20368,435,-484,-51,50,63
19.56,1011,-3072,-356,20516,496,-486,-40,50,63
19.58,1008,-2904,-348,20508,512,-381,-59,50,63
19.60,1009,-3144,-220,20592,488,-248,-35,50,63
19.62,1010,-3100,-236,20556,385,-158,20,50,63
19.64,1009,-3432,-284,20516,342,-229,10,50,63
19.66,1010,-3440,-360,20432,373,-353,10,50,63
19.68,1011,-3216,-396,20436,478,-455,21,50,63
19.70,1008,-3164,-368,20476,526,-382,74,50,63
19.72,1006,-3064,-248,20368,504,-213,63,50,63
19.74,1017,-3128,-320,20596,453,-136,66,50,63
19.76,1019,-3336,-244,20456,370,-169,46,50,63
19.78,1021,-3496,-192,20484,396,-400,4,50,63
19.80,1009,-3252,-316,20416,430,-610,-13,50,63
19.82,1012,-3176,-372,20440,482,-564,21,50,63
19.84,1015,-3056,-356,20540,465,-446,26,50,63
19.86,1012,-3252,-356,20512,421,-394,60,50,63
19.88,1020,-3244,-252,20464,381,-418,23,50,63
19.90,1012,-3360,-376,20536,410,-462,60,50,63
19.92,1018,-3144,-240,20544,484,-466,79,50,63
19.94,1012,-3240,-408,20516,498,-402,65,50,63
19.96,1021,-3128,-372,20444,553,-356,92,50,63
19.98,1002,-3148,-284,20352,496,-331,59,50,63
20.00,1009,-3104,-236,20372,467,-278,94,50,63
20.02,1013,-3224,-364,20404,432,-198,79,50,63
20.04,1024,-3348,-284,20420,492,-185,92,50,63
20.06,1018,-3404,-196,20516,462,-317,70,50,63
20.08,1014,-3440,-268,20356,468,-435,30,50,63
20.10,1009,-3348,-220,20380,456,-553,23,50,63
20.12,1014,-3196,-316,20544,417,-540,17,50,63
20.14,1006,-3152,-296,20484,407,-475,49,50,63
20.16,1023,-3308,-296,20504,415,-394,27,50,63
20.18,1018,-3296,-324,20464,459,-436,19,50,63
20.20,1009,-3324,-188,20620,452,-425,40,50,63
20.22,1007,-3308,-268,20460,387,-443,4,50,63
20.24,1008,-3252,-316,20476,375,-443,30,50,63
20.26,1009,-3300,-444,20520,377,-473,33,50,63
20.28,1022,-3236,-228,20376,457,-477,44,50,63
20.30,1009,-3240,-252,20628,411,-460,9,50,63
20.32,1016,-3360,-288,20512,364,-490,25,50,63
20.34,1010,-3304,-284,20496,358,-566,1,50,63
20.36,1020,-3272,-300,20424,346,-561,-56,50,63
20.38,1024,-3064,-260,20440,399,-518,-38,50,63
20.40,1015,-3068,-328,20612,434,-411,-37,50,63
20.42,1015,-3300,-328,20272,426,-292,20,50,63
20.44,1010,-3296,-308,20516,468,-271,7,50,63
20.46,1011,-3180,-348,20480,465,-375,1,50,63
20.48,1011,-3328,-284,20444,473,-445,8,50,63
20.50,1009,-3120,-388,20584,481,-451,40,50,63
20.52,1019,-3180,-292,20512,496,-360,36,50,63
20.54,1017,-3268,-268,20340,480,-277,45,50,63
20.56,1006,-3212,-364,20504,441,-224,42,50,63
20.58,1008,-3392,-224,20472,419,-255,37,50,63
20.60,1016,-3344,-188,20468,421,-374,24,50,63
20.62,1020,-3332,-276,20360,465,-453,28,50,63
20.64,1020,-3184,-352,20544,493,-359,61,50,63
20.66,1017,-3248,-320,20392,492,-217,79,50,63
20.68,1012,-3284,-332,20448,416,-169,99,50,63
20.70,1018,-3504,-260,20408,426,-307,43,50,63
20.72,1023,-3480,-316,20456,428,-495,0,50,63
20.74,1021,-3168,-288,20496,489,-549,-10,50,63
20.76,1016,-3184,-192,20580,463,-454,28,50,63
20.78,1020,-3372,-240,20540,374,-408,39,50,63
20.80,1022,-3488,-264,20444,358,-486,20,50,63
20.82,1004,-3348,-252,20496,354,-624,-4,50,63
20.84,1021,-3100,-384,20424,372,-650,3,50,63
20.86,1012,-3156,-316,20600,425,-530,0,50,63
20.88,1016,-3240,-384,20388,441,-402,20,50,63
20.90,1025,-3348,-248,20324,423,-391,19,59,59
20.92,1007,-3336,-268,20496,378,-464,6,59,59
20.94,1015,-3340,-384,20496,364,-579,-76,59,59
20.96,1028,-3168,-396,20444,412,-461,-27,59,59
20.98,1008,-3276,-328,20404,474,-398,-39,59,59
21.00,1017,-3188,-304,20620,483,-407,41,59,59
21.02,1020,-3312,-296,20392,426,-382,-9,59,59
21.04,1012,-3248,-256,20472,412,-396,-3,59,59
21.06,1014,-3280,-308,20484,427,-347,7,59,59
21.08,1009,-3260,-432,20416,440,-320,10,59,59
21.10,1015,-3348,-280,20508,472,-313,58,59,59
21.12,1022,-3164,-316,20468,448,-401,49,59,59
21.14,1024,-3296,-340,20380,450,-400,34,59,59
21.16,1021,-3156,-320,20584,421,-310,30,59,59
21.18,1016,-3316,-400,20520,422,-213,48,59,59
21.20,1013,-3352,-268,20404,453,-251,76,59,59
21.22,1009,-3408,-280,20424,472,-318,49,59,59
21.24,1012,-3384,-288,20480,479,-399,47,59,59
21.26,1018,-3168,-296,20448,414,-379,25,59,59
21.28,1010,-3328,-376,20512,426,-384,52,59,59
21.30,1008,-3256,-380,20472,445,-386,52,59,59
21.32,1022,-3348,-332,20540,490,-395,57,59,59
21.34,1023,-3336,-208,20440,451,-382,44,59,59
21.36,1012,-3368,-220,20356,409,-359,40,59,59
21.38,1012,-3288,-392,20452,384,-346,71,59,59
21.40,1020,-3340,-376,20356,415,-321,58,59,59
21.42,1026,-3316,-344,20532,448,-297,69,59,59
21.44,1005,-3260,-272,20324,488,-293,72,59,59
21.46,1015,-3372,-344,20452,481,-338,76,59,59
21.48,1005,-3356,-308,20424,444,-380,65,59,59
21.50,1009,-3352,-304,20468,421,-409,26,59,59
21.52,1025,-3356,-364,20316,465,-375,39,59,59
21.54,1023,-3412,-304,20416,454,-350,32,59,59
21.56,1014,-3352,-388,20412,450,-333,17,59,59
21.58,1021,-3236,-296,20480,441,-332,24,59,59
21.60,1009,-3284,-300,20548,421,-275,32,59,59
21.62,1018,-3352,-372,20424,424,-237,52,59,59
21.64,1008,-3508,-236,20452,441,-260,25,59,59
21.66,1021,-3396,-328,20524,492,-340,24,59,59
21.68,1011,-3276,-392,20496,484,-314,22,59,59
21.70,1021,-3380,-248,20316,429,-294,24,59,59
21.72,1009,-3492,-164,20452,359,-267,-5,59,59
21.74,1009,-3500,-348,20488,355,-325,-1,59,59
21.76,1019,-3628,-400,20488,440,-454,-16,59,59
21.78,1011,-3384,-316,20392,466,-475,6,59,59
21.80,1017,-3340,-300,20316,465,-430,33,59,59
21.82,1019,-3296,-244,20404,421,-258,34,59,59
21.84,1008,-3512,-256,20524,416,-262,47,59,59
21.86,1024,-3624,-440,20476,396,-395,23,59,59
21.88,1015,-3496,-372,20512,469,-514,15,59,59
21.90,1018,-3408,-260,20412,478,-509,39,59,59
21.92,1014,-3272,-220,20564,431,-424,44,59,59
21.94,1020,-3344,-304,20520,412,-330,45,59,59
21.96,1012,-3468,-340,20536,389,-283,22,59,59
21.98,1021,-3512,-352,20504,406,-427,49,59,59
22.00,1015,-3480,-264,20488,466,-501,36,59,59
22.02,1016,-3320,-284,20584,457,-481,33,59,59
22.04,1021,-3344,-280,20488,468,-374,30,59,59
22.06,1005,-3344,-228,20324,421,-307,56,59,59
22.08,1010,-3592,-284,20356,398,-393,3,59,59
22.10,1008,-3556,-292,20636,483,-557,-11,59,59
22.12,1008,-3364,-304,20412,445,-547,3,59,59
22.14,1013,-3256,-252,20524,468,-421,47,59,59
22.16,1007,-3328,-272,20420,392,-310,16,59,59
22.18,1015,-3572,-380,20420,373,-395,33,59,59
22.20,1018,-3524,-296,20412,388,-509,14,59,59
22.22,1023,-3332,-356,20388,433,-580,6,59,59
22.24,1022,-3420,-368,20436,436,-552,16,59,59
22.26,1007,-3420,-216,20536,421,-490,8,59,59
22.28,1005,-3360,-252,20392,410,-446,11,59,59
22.30,1004,-3420,-292,20420,379,-439,4,59,59
22.32,1019,-3428,-320,20236,408,-482,-1,59,59
22.34,1010,-3460,-344,20332,451,-500,-1,59,59
22.36,1011,-3316,-236,20392,458,-504,-14,59,59
22.38,1005,-3380,-328,20412,398,-465,-10,59,59
22.40,1006,-3468,-332,20376,400,-448,-1,59,59
22.42,1018,-3416,-284,20500,385,-478,25,59,59
22.44,1023,-3396,-208,20612,416,-506,-4,59,59
22.46,1009,-3400,-320,20412,490,-534,23,59,59
22.48,1006,-3368,-312,20480,440,-486,8,59,59
22.50,1014,-3416,-272,20488,396,-463,22,59,59
22.52,1025,-3292,-292,20360,375,-408,21,59,59
22.54,1005,-3388,-344,20400,408,-369,29,59,59
22.56,1017,-3420,-376,20496,474,-426,41,59,59
22.58,1020,-3316,-348,20432,498,-463,48,59,59
22.60,1015,-3304,-256,20360,490,-462,43,59,59
22.62,1016,-3300,-260,20452,458,-390,48,59,59
22.64,1014,-3416,-320,20360,403,-412,17,59,59
22.66,1006,-3476,-292,20456,416,-464,37,59,59
22.68,1002,-3384,-372,20412,440,-510,12,59,59
22.70,1016,-3356,-328,20436,463,-520,50,59,59
22.72,1005,-3276,-152,20312,441,-465,19,59,59
22.74,1008,-3368,-340,20508,395,-418,41,59,59
22.76,1025,-3416,-368,20428,411,-441,50,59,59
22.78,1005,-3424,-320,20436,452,-541,42,59,59
22.80,1008,-3400,-292,20552,442,-584,4,59,59
22.82,1020,-3320,-336,20428,455,-493,12,59,59
22.84,1017,-3380,-288,20232,420,-433,22,59,59
22.86,1011,-3416,-296,20532,403,-375,25,59,59
22.88,1020,-3536,-296,20568,424,-457,15,59,59
22.90,1015,-3468,-272,20548,441,-544,21,59,59
22.92,1022,-3312,-264,20448,461,-552,-12,59,59
22.94,1002,-3356,-312,20504,437,-499,26,59,59
22.96,1012,-3320,-280,20400,428,-393,42,59,59
22.98,1002,-3404,-176,20448,399,-435,34,59,59
23.00,1017,-3528,-376,20280,368,-549,-13,59,59
23.02,1010,-3348,-356,20464,442,-637,-3,59,59
23.04,1018,-3172,-360,20488,484,-560,-12,59,59
23.06,1010,-3216,-204,20392,421,-400,35,59,59
23.08,1006,-3300,-292,20480,369,-396,11,59,59
23.10,1020,-3572,-240,20488,357,-530,-2,59,59
23.12,1002,-3344,-424,20400,392,-695,6,59,59
23.14,1016,-3260,-424,20472,462,-641,-18,59,59
23.16,1019,-3128,-312,20492,436,-510,21,59,59
23.18,1020,-3292,-244,20492,414,-390,41,59,59
23.20,1010,-3396,-404,20352,433,-405,31,59,59
23.22,1018,-3416,-200,20440,428,-510,-6,59,59
23.24,1015,-3292,-344,20460,446,-628,-21,59,59
23.26,1013,-3312,-320,20488,450,-595,-33,59,59
23.28,1013,-2936,-332,20456,452,-458,-11,59,59
23.30,1012,-3292,-360,20472,448,-305,36,59,59
23.32,1012,-3368,-300,20396,392,-361,30,59,59
23.34,1019,-3424,-348,20328,428,-521,6,59,59
23.36,1016,-3236,-340,20476,475,-596,5,59,59
23.38,1004,-3168,-376,20580,504,-492,47,59,59
23.40,1016,-3128,-288,20412,465,-326,51,59,59
23.42,1015,-3328,-252,20520,415,-279,47,59,59
23.44,1021,-3480,-372,20524,422,-408,39,59,59
23.46,1021,-3300,-244,20460,438,-535,6,59,59
23.48,1006,-3164,-364,20304,460,-518,36,59,59
23.50,1018,-3188,-252,20468,456,-424,36,59,59
23.52,1000,-3256,-368,20556,456,-399,82,59,59
23.54,997,-3368,-192,20524,416,-419,43,59,59
23.56,1020,-3296,-272,20464,480,-484,21,59,59
23.58,1010,-3344,-364,20484,452,-477,0,59,59
23.60,1011,-3328,-292,20420,428,-461,50,59,59
23.62,1013,-3216,-348,20412,407,-409,23,59,59
23.64,1005,-3292,-244,20444,384,-458,37,59,59
23.66,1000,-3292,-284,20352,403,-498,-5,59,59
23.68,1003,-3244,-424,20428,505,-524,22,59,59
23.70,1015,-3056,-336,20508,481,-429,35,59,59
23.72,1012,-3144,-312,20400,420,-352,58,59,59
23.74,1018,-3352,-276,20572,370,-366,36,59,59
23.76,1016,-3372,-420,20492,391,-427,42,59,59
23.78,1007,-3292,-340,20452,446,-474,30,59,59
23.80,1011,-3252,-308,20548,444,-492,41,59,59
23.82,1008,-3148,-328,20452,467,-393,42,59,59
23.84,1016,-3264,-280,20484,452,-369,67,59,59
23.86,1009,-3372,-312,20636,420,-351,17,59,59
23.88,1008,-3348,-340,20372,418,-471,47,59,59
23.90,1017,-3284,-320,20468,432,-529,2,59,62
23.92,1012,-3228,-240,20532,472,-522,31,59,62
23.94,1018,-3168,-296,20568,426,-462,13,59,62
23.96,1006,-3284,-260,20440,392,-410,43,59,62
23.98,1013,-3316,-340,20360,407,-465,46,59,62
24.00,1013,-3336,-284,20456,428,-534,22,59,62
24.02,1016,-3168,-360,20484,452,-565,24,59,62
24.04,1014,-3216,-284,20516,433,-473,34,59,62
24.06,1008,-3176,-308,20396,415,-415,24,59,62
24.08,1020,-3204,-296,20472,403,-386,33,59,62
24.10,1001,-3304,-304,20468,418,-439,-6,59,62
24.12,1013,-3348,-352,20476,447,-493,34,59,62
24.14,1010,-3176,-316,20524,461,-476,6,59,62
24.16,1016,-3128,-228,20484,418,-406,13,59,62
24.18,1006,-3332,-316,20500,431,-408,33,59,62
24.20,1011,-3296,-352,20440,421,-414,20,59,62
24.22,1007,-3180,-264,20564,466,-459,12,59,62
24.24,1011,-3172,-312,20436,460,-441,20,59,62
24.26,999,-3312,-312,20372,403,-435,31,59,62
24.28,1011,-3240,-324,20456,434,-465,41,59,62
24.30,1017,-3196,-380,20368,488,-455,0,59,62
24.32,1018,-3156,-264,20444,429,-368,27,59,62
24.34,1003,-3216,-288,20508,410,-313,42,59,62
24.36,1001,-3208,-308,20476,371,-313,46,59,62
24.38,1015,-3328,-380,20520,410,-386,55,59,62
24.40,1008,-3256,-356,20436,476,-432,62,59,62
24.42,1003,-3212,-232,20500,512,-361,62,59,62
24.44,1012,-3132,-320,20516,491,-281,103,59,62
24.46,1018,-3164,-316,20488,482,-237,82,59,62
24.48,1006,-3356,-364,20380,400,-261,64,59,62
24.50,1019,-3364,-336,20528,424,-383,42,59,62
24.52,1014,-3360,-244,20440,488,-475,52,59,62
24.54,1009,-3216,-400,20532,471,-475,52,59,62
24.56,1014,-3212,-268,20356,461,-385,64,59,62
24.58,1019,-3332,-308,20408,391,-360,80,59,62
24.60,1012,-3288,-288,20592,406,-391,56,59,62
24.62,998,-3280,-348,20396,449,-453,69,59,62
24.64,1019,-3332,-436,20472,428,-431,59,59,62
24.66,1021,-3248,-416,20360,444,-377,72,59,62
24.68,1017,-3272,-308,20484,480,-330,66,59,62
24.70,1012,-3348,-216,20408,430,-294,69,59,62
24.72,1013,-3392,-344,20340,430,-335,58,59,62
24.74,1000,-3328,-372,20400,457,-365,31,59,62
24.76,1009,-3324,-248,20408,458,-344,19,59,62
24.78,1003,-3312,-260,20456,448,-344,43,59,62
24.80,1010,-3312,-308,20496,437,-328,57,59,62
24.82,1001,-3388,-344,20348,429,-396,66,59,62
24.84,1006,-3288,-288,20400,451,-405,48,59,62
24.86,1004,-3400,-292,20508,462,-425,42,59,62
24.88,1005,-3384,-172,20648,459,-403,40,59,62
24.90,1002,-3324,-264,20556,404,-388,36,59,62
24.92,1010,-3412,-428,20576,393,-459,27,59,62
24.94,1018,-3364,-276,20452,424,-509,43,59,62
24.96,1003,-3276,-356,20480,476,-501,31,59,62
24.98,1007,-3232,-208,20376,427,-411,58,59,62
25.00,1018,-3320,-312,20388,375,-361,70,59,62
25.02,1009,-3408,-336,20440,346,-381,43,59,62
25.04,1018,-3312,-312,20412,412,-491,25,59,62
25.06,1003,-3252,-352,20452,466,-479,45,59,62
25.08,1019,-3300,-296,20368,483,-425,33,59,62
25.10,1008,-3228,-240,20520,468,-360,70,59,62
25.12,1014,-3356,-236,20420,439,-314,28,59,62
25.14,1014,-3412,-304,20516,409,-386,36,59,62
25.16,1020,-3352,-220,20404,452,-445,30,59,62
25.18,1009,-3364,-324,20548,443,-499,6,59,62
25.20,998,-3204,-276,20576,444,-521,38,59,62
25.22,1005,-3296,-240,20484,440,-462,44,59,62
25.24,1005,-3232,-312,20488,390,-473,33,59,62
25.26,1012,-3320,-312,20460,403,-467,26,59,62
25.28,1010,-3240,-412,20348,444,-464,45,59,62
25.30,1009,-3304,-288,20516,420,-424,46,59,62
25.32,1015,-3320,-332,20520,443,-390,17,59,62
25.34,1008,-3328,-276,20560,471,-392,30,59,62
25.36,1003,-3300,-280,20572,426,-399,40,59,62
25.38,1023,-3296,-300,20476,419,-386,49,59,62
25.40,1016,-3444,-244,20440,424,-389,26,59,62
25.42,1011,-3400,-292,20452,434,-423,37,59,62
25.44,1010,-3328,-208,20412,433,-433,14,59,62
25.46,1012,-3292,-232,20380,414,-443,2,59,62
25.48,1017,-3356,-276,20444,432,-452,-4,59,62
25.50,1017,-3292,-204,20452,434,-436,22,59,62
25.52,1011,-3380,-168,20468,377,-427,14,59,62
25.54,1006,-3352,-292,20480,384,-531,19,59,62
25.56,1013,-3332,-264,20424,445,-593,-15,59,62
25.58,1015,-3172,-360,20440,461,-537,31,59,62
25.60,1012,-3256,-276,20524,425,-424,52,59,62
25.62,1009,-3256,-264,20364,371,-337,37,59,62
25.64,1003,-3416,-344,20476,376,-360,16,59,62
25.66,1010,-3416,-352,20364,397,-471,2,59,62
25.68,1006,-3320,-260,20424,448,-480,30,59,62
25.70,1016,-3148,-256,20576,477,-408,34,59,62
25.72,1019,-3284,-276,20404,456,-313,29,59,62
25.74,1016,-3408,-276,20524,438,-313,64,59,62
25.76,1014,-3364,-196,20460,411,-405,19,59,62
25.78,1005,-3452,-352,20372,431,-506,-2,59,62
25.80,1025,-3320,-252,20496,441,-493,-3,59,62
25.82,1007,-3244,-404,20452,463,-415,20,59,62
25.84,1013,-3344,-232,20556,449,-383,51,59,62
25.86,1004,-3340,-328,20512,421,-431,27,59,62
25.88,1010,-3404,-372,20436,439,-454,28,59,62
25.90,1003,-3264,-280,20576,441,-425,40,59,62
25.92,1012,-3244,-240,20428,462,-401,46,59,62
25.94,1015,-3356,-308,20284,448,-406,62,59,62
25.96,1010,-3328,-216,20480,440,-406,54,59,62
25.98,1005,-3264,-240,20468,418,-395,46,59,62
26.00,1007,-3256,-360,20396,411,-381,4,59,62
26.02,994,-3364,-320,20396,432,-369,29,59,62
26.04,998,-3384,-264,20536,442,-383,20,59,62
26.06,997,-3300,-276,20396,429,-411,33,59,62
26.08,1004,-3352,-304,20500,434,-434,14,59,62
26.10,1000,-3272,-264,20468,423,-435,12,59,62
26.12,1012,-3356,-368,20460,434,-447,31,59,62
26.14,1004,-3292,-236,20568,395,-478,2,59,62
26.16,1013,-3252,-280,20484,386,-505,0,59,62
26.18,1024,-3392,-312,20540,449,-503,17,59,62
26.20,1018,-3128,-336,20544,458,-470,28,59,62
26.22,1023,-3292,-184,20544,440,-387,24,59,62
26.24,1024,-3312,-244,20352,346,-365,28,59,62
26.26,1010,-3348,-276,20488,379,-435,18,59,62
26.28,1009,-3308,-360,20424,404,-489,6,59,62
26.30,1025,-3144,-368,20400,480,-435,26,59,62
26.32,1019,-3180,-324,20384,447,-335,42,59,62
26.34,1012,-3432,-308,20460,408,-333,55,59,62
26.36,1020,-3436,-332,20432,432,-406,56,59,62
26.38,1028,-3336,-332,20400,434,-479,7,59,62
26.40,1025,-3260,-240,20460,453,-505,23,59,62
26.42,1012,-3128,-352,20464,441,-409,26,59,62
26.44,1020,-3204,-292,20452,449,-375,20,59,62
26.46,1003,-3460,-272,20508,440,-387,8,59,62
26.48,1014,-3316,-272,20412,393,-463,-3,59,62
26.50,1019,-3248,-288,20368,426,-476,12,59,62
26.52,1012,-3292,-204,20520,443,-422,32,59,62
26.54,1015,-3308,-216,20420,430,-388,23,59,62
26.56,1018,-3388,-336,20540,429,-416,42,59,62
26.58,1014,-3308,-288,20384,461,-447,3,59,62
26.60,1018,-3284,-332,20424,414,-385,6,59,62
26.62,1014,-3272,-360,20392,424,-342,27,59,62
26.64,1014,-3372,-312,20580,435,-360,43,59,62
26.66,1005,-3352,-324,20384,434,-397,22,59,62
26.68,992,-3380,-264,20436,445,-443,27,59,62
26.70,1008,-3316,-368,20372,451,-430,14,59,62
26.72,1016,-3288,-324,20476,417,-393,33,59,62
26.74,1016,-3380,-276,20368,383,-369,38,59,62
26.76,1002,-3436,-312,20464,412,-446,14,59,62
26.78,990,-3400,-304,20492,465,-481,21,59,62
26.80,997,-3224,-236,20596,467,-446,9,59,62
26.82,1011,-3280,-276,20484,390,-372,19,59,62
26.84,1006,-3444,-348,20452,411,-399,47,59,62
26.86,1011,-3272,-292,20604,410,-404,55,59,62
26.88,1024,-3260,-356,20440,444,-387,44,59,62
26.90,1022,-3308,-320,20396,471,-354,54,59,63
26.92,1023,-3328,-184,20376,467,-328,83,59,63
26.94,1008,-3424,-248,20384,443,-324,56,59,63
26.96,1020,-3404,-232,20408,439,-415,35,59,63
26.98,1030,-3324,-304,20388,456,-431,23,59,63
27.00,1020,-3252,-272,20448,491,-391,30,59,63
27.02,1026,-3188,-304,20500,447,-303,47,59,63
27.04,1017,-3352,-316,20600,433,-277,60,59,63
27.06,1008,-3360,-216,20496,454,-345,25,59,63
27.08,1013,-3344,-244,20440,436,-390,49,59,63
27.10,1019,-3492,-352,20460,429,-406,50,59,63
27.12,1016,-3472,-364,20504,458,-415,55,59,63
27.14,1026,-3340,-268,20536,463,-372,54,59,63
27.16,1018,-3400,-216,20616,444,-356,58,59,63
27.18,1012,-3424,-192,20432,418,-368,55,59,63
27.20,993,-3332,-320,20344,431,-365,34,59,63
27.22,1008,-3396,-280,20508,448,-364,7,59,63
27.24,1007,-3424,-292,20300,414,-320,44,59,63
27.26,1002,-3248,-280,20392,437,-331,40,59,63
27.28,1018,-3428,-348,20572,454,-353,46,59,63
27.30,1004,-3412,-288,20400,442,-386,45,59,63
27.32,1018,-3400,-320,20376,432,-386,42,59,63
27.34,1012,-3528,-220,20320,406,-425,42,59,63
27.36,1009,-3408,-188,20272,385,-443,17,59,63
27.38,1000,-3368,-304,20448,450,-494,-4,59,63
27.40,996,-3276,-208,20592,466,-449,33,59,63
27.42,1009,-3280,-292,20424,405,-366,37,59,63
27.44,1007,-3488,-248,20444,393,-355,5,59,63
27.46,1008,-3540,-272,20488,395,-406,7,59,63
27.48,1004,-3284,-336,20476,439,-416,11,59,63
27.50,1011,-3332,-252,20536,430,-431,30,59,63
27.52,1001,-3440,-288,20380,423,-429,40,59,63
27.54,1009,-3500,-220,20524,419,-469,25,59,63
27.56,1001,-3500,-292,20524,384,-533,12,59,63
27.58,1010,-3400,-280,20480,390,-500,-16,59,63
27.60,1012,-3460,-348,20488,467,-509,8,59,63
27.62,1017,-3324,-236,20372,451,-427,11,59,63
27.64,1018,-3412,-352,20368,422,-383,-5,59,63
27.66,1016,-3476,-252,20488,382,-399,-6,59,63
27.68,1024,-3452,-376,20416,411,-444,40,59,63
27.70,1012,-3476,-348,20512,413,-464,15,59,63
27.72,1000,-3440,-304,20352,422,-477,9,59,63
27.74,1006,-3340,-324,20460,432,-464,33,59,63
27.76,1023,-3300,-312,20456,423,-411,42,59,63
27.78,1002,-3388,-280,20500,414,-383,16,59,63
27.80,1008,-3352,-264,20472,414,-393,16,59,63
27.82,1014,-3448,-352,20404,432,-403,11,59,63
27.84,1016,-3312,-276,20540,430,-417,35,59,63
27.86,1010,-3464,-336,20496,435,-373,38,59,63
27.88,1002,-3460,-296,20404,444,-396,38,59,63
27.90,1010,-3492,-264,20400,444,-443,48,59,63
27.92,994,-3408,-384,20552,427,-498,8,59,63
27.94,1014,-3344,-284,20452,404,-440,29,59,63
27.96,1005,-3392,-368,20428,383,-426,31,59,63
27.98,996,-3408,-312,20360,438,-487,12,59,63
28.00,1001,-3336,-372,20420,415,-443,-12,59,63
28.02,1012,-3344,-280,20408,406,-392,39,59,63
28.04,1010,-3476,-304,20448,414,-341,12,59,63
28.06,1009,-3480,-268,20328,420,-372,35,59,63
28.08,1005,-3372,-448,20308,450,-363,64,59,63
28.10,1009,-3452,-244,20532,469,-330,56,59,63
28.12,1012,-3432,-264,20404,453,-340,27,59,63
28.14,1010,-3480,-188,20480,441,-422,49,59,63
28.16,1009,-3412,-332,20308,402,-446,28,59,63
28.18,1007,-3296,-440,20472,446,-467,13,59,63
28.20,1009,-3284,-432,20424,441,-393,-6,59,63
28.22,1013,-3380,-232,20416,474,-344,8,59,63
28.24,1008,-3476,-276,20384,382,-382,8,59,63
28.26,1013,-3528,-304,20316,423,-513,-6,59,63
28.28,1014,-3452,-208,20448,413,-632,-29,59,63
28.30,1017,-3272,-372,20432,453,-569,7,59,63
28.32,1022,-3536,-308,20520,461,-490,-29,59,63
28.34,1015,-3360,-308,20308,430,-455,-17,59,63
28.36,1010,-3448,-264,20532,422,-479,-2,59,63
28.38,1005,-3380,-316,20428,377,-407,-59,59,63
28.40,1013,-3464,-404,20376,450,-465,-37,59,63
28.42,999,-3508,-332,20444,447,-530,-36,59,63
28.44,996,-3336,-352,20300,439,-596,-34,59,63
28.46,1008,-3352,-280,20508,419,-602,-45,59,63
28.48,1007,-3252,-376,20528,427,-493,-30,59,63
28.50,1017,-3220,-348,20428,418,-398,-12,59,63
28.52,1004,-3512,-372,20576,413,-522,-6,59,63
28.54,1012,-3432,-300,20444,402,-537,-51,59,63
28.56,1008,-3452,-344,20500,483,-724,-15,59,63
28.58,997,-3256,-340,20416,472,-619,-8,59,63
28.60,1011,-3308,-348,20416,420,-549,7,59,63
28.62,1021,-3272,-316,20356,384,-514,1,59,63
28.64,1006,-3336,-428,20408,378,-462,8,59,63
28.66,1014,-3436,-360,20440,412,-442,22,59,63
28.68,1014,-3344,-344,20640,437,-498,13,59,63
28.70,1009,-3384,-268,20388,450,-560,25,59,63
28.72,1015,-3320,-204,20316,443,-603,10,59,63
28.74,1001,-3168,-352,20432,418,-516,-2,59,63
28.76,1010,-3284,-256,20476,448,-455,27,59,63
28.78,1018,-3288,-360,20504,419,-437,5,59,63
28.80,1007,-3356,-360,20368,459,-481,-29,59,63
28.82,1016,-3292,-356,20444,454,-466,19,59,63
28.84,1001,-3328,-336,20596,419,-463,-19,59,63
28.86,1017,-3480,-284,20464,413,-513,27,59,63
28.88,1011,-3328,-392,20420,412,-576,5,59,63
28.90,1008,-3404,-388,20440,436,-594,6,59,63
28.92,1023,-3216,-324,20316,462,-520,16,59,63
28.94,1008,-3156,-288,20428,451,-394,38,59,63
28.96,1004,-3216,-268,20436,406,-341,41,59,63
28.98,1009,-3340,-280,20512,415,-407,40,59,63
29.00,1023,-3396,-264,20488,454,-538,19,59,63
29.02,1011,-3264,-372,20552,464,-587,23,59,63
29.04,1011,-3164,-296,20444,451,-488,7,59,63
29.06,1021,-3300,-292,20480,431,-462,31,59,63
29.08,1006,-3256,-140,20524,387,-478,17,59,63
29.10,1007,-3356,-352,20620,368,-556,-12,59,63
29.12,1003,-3256,-264,20380,417,-567,-24,59,63
29.14,1015,-3136,-296,20448,444,-504,1,59,63
29.16,1014,-3116,-348,20460,474,-433,43,59,63
29.18,1016,-3092,-204,20544,442,-351,37,59,63
29.20,1016,-3276,-340,20596,425,-344,26,59,63
29.22,1014,-3240,-252,20560,394,-390,18,59,63
29.24,1012,-3240,-376,20632,431,-468,30,59,63
29.26,1015,-3276,-348,20392,479,-492,21,59,63
29.28,1013,-3192,-260,20368,460,-497,26,59,63
29.30,1009,-3144,-268,20472,432,-407,4,59,63
29.32,1012,-3252,-288,20504,412,-374,12,59,63
29.34,1007,-3292,-212,20424,430,-413,22,59,63
29.36,1001,-3288,-256,20584,440,-552,-11,59,63
29.38,1003,-3224,-272,20456,437,-576,-18,59,63
29.40,1013,-3156,-320,20448,426,-499,10,59,63
29.42,1001,-3160,-280,20404,415,-431,9,59,63
29.44,1016,-3400,-360,20444,391,-450,33,59,63
29.46,1017,-3344,-352,20316,435,-534,5,59,63
29.48,1011,-3280,-336,20536,460,-587,0,59,63
29.50,1007,-3160,-280,20480,447,-545,43,59,63
29.52,1011,-3116,-324,20528,444,-482,51,59,63
29.54,1015,-3204,-392,20496,430,-464,7,59,63
29.56,1015,-3156,-340,20400,422,-409,30,59,63
29.58,1003,-3232,-288,20416,418,-398,25,59,63
29.60,1007,-3236,-292,20612,468,-415,10,59,63
29.62,1016,-3220,-200,20472,446,-451,19,59,63
29.64,1023,-3336,-356,20648,423,-456,8,59,63
29.66,1016,-3344,-276,20576,424,-466,28,59,63
29.68,1020,-3284,-316,20472,432,-524,6,59,63
29.70,1018,-3212,-292,20440,420,-528,5,59,63
29.72,1017,-3164,-360,20532,423,-552,38,59,63
29.74,1011,-3188,-336,20620,429,-572,0,59,63
29.76,1014,-3116,-356,20596,389,-522,1,59,63
29.78,1006,-3120,-364,20328,440,-460,17,59,63
29.80,1014,-3076,-332,20376,449,-410,66,59,63
29.82,1002,-3144,-252,20480,393,-387,47,59,63
29.84,1006,-3216,-296,20508,383,-514,20,59,63
29.86,1017,-3212,-372,20532,421,-608,4,59,63
29.88,1005,-3056,-476,20524,467,-582,25,59,59
29.90,1016,-2992,-336,20440,467,-456,33,59,59
29.92,1018,-3184,-332,20508,433,-362,45,59,59
29.94,1014,-3308,-372,20340,436,-413,46,59,59
29.96,1023,-3204,-344,20416,474,-514,-5,59,59
29.98,1012,-3136,-364,20428,473,-524,7,59,59
30.00,1014,-3084,-248,20440,451,-447,10,59,59
30.02,1018,-3108,-328,20524,440,-379,40,59,59
30.04,1010,-3280,-332,20416,447,-404,38,59,59
30.06,1009,-3224,-268,20516,413,-484,34,59,59
30.08,1014,-3152,-272,20560,428,-538,42,59,59
30.10,1005,-3012,-168,20424,423,-500,21,59,59
30.12,1002,-3104,-276,20568,403,-453,23,59,59
30.14,999,-3132,-308,20420,430,-479,44,59,59
30.16,999,-3248,-360,20576,488,-495,32,59,59
30.18,1019,-3032,-320,20388,454,-506,41,59,59
30.20,1013,-3064,-300,20536,430,-442,32,59,59
30.22,1005,-3236,-364,20540,417,-428,36,59,59
30.24,1008,-3260,-320,20428,415,-535,24,59,59
30.26,1022,-3196,-272,20484,405,-640,-6,59,59
30.28,1019,-3072,-408,20516,427,-654,-25,59,59
30.30,999,-3152,-312,20564,419,-560,-6,59,59
30.32,1012,-3140,-220,20488,411,-528,-16,59,59
30.34,1016,-3160,-348,20536,407,-465,8,59,59
30.36,1009,-3036,-388,20508,448,-333,96,59,59
30.38,1001,-3172,-316,20604,383,-273,72,59,59
30.40,1000,-3268,-296,20344,412,-453,33,59,59
30.42,1002,-3228,-284,20372,469,-571,7,59,59
30.44,1012,-2988,-276,20540,451,-526,3,59,59
30.46,1015,-3024,-264,20472,400,-495,24,59,59
30.48,1018,-3108,-332,20556,390,-477,34,59,59
30.50,1013,-3156,-388,20640,377,-484,43,59,59
30.52,1003,-3152,-296,20516,427,-537,32,59,59
30.54,1004,-3016,-352,20472,429,-489,37,59,59
30.56,1000,-3028,-336,20412,458,-461,49,59,59
30.58,1007,-3020,-348,20528,413,-436,40,59,59
30.60,1018,-3168,-380,20392,407,-490,18,59,59
30.62,1012,-3144,-416,20572,426,-473,19,59,59
30.64,1018,-3044,-360,20440,449,-448,24,59,59
30.66,1004,-3040,-352,20476,424,-382,27,59,59
30.68,1002,-3112,-324,20404,401,-396,32,59,59
30.70,1003,-3168,-300,20444,428,-437,40,59,59
30.72,1005,-3076,-308,20656,442,-464,34,59,59
30.74,1009,-3056,-224,20504,428,-470,20,59,59
30.76,1000,-3092,-456,20452,409,-422,4,59,59
30.78,999,-3076,-248,20604,416,-393,46,59,59
30.80,1018,-3176,-244,20492,422,-416,45,59,59
30.82,1008,-3172,-348,20352,413,-454,31,59,59
30.84,1002,-3092,-388,20544,442,-441,67,59,59
30.86,998,-3072,-376,20372,476,-416,26,59,59
30.88,1008,-2988,-304,20508,451,-377,38,59,59
30.90,1004,-3140,-272,20548,443,-355,54,59,59
30.92,1015,-3180,-324,20468,441,-420,42,59,59
30.94,1017,-3152,-380,20580,464,-495,45,59,59
30.96,1000,-3056,-352,20548,449,-508,36,59,59
30.98,1010,-3160,-356,20500,412,-573,22,59,59
31.00,1009,-3128,-344,20524,429,-588,-1,59,59
31.02,1002,-3056,-360,20528,453,-589,-1,59,59
31.04,1006,-2964,-332,20556,454,-538,5,59,59
31.06,1018,-2964,-368,20544,413,-458,21,59,59
31.08,1021,-3012,-368,20540,392,-382,42,59,59
31.10,1020,-2848,-452,20524,384,-250,111,59,59
31.12,1008,-3044,-284,20512,446,-32,158,59,59
31.14,1020,-3188,-328,20376,381,9,123,59,59
31.16,1008,-3284,-328,20552,349,-154,64,59,59
31.18,1015,-3276,-344,20280,422,-290,9,59,59
31.20,1003,-2956,-500,20464,493,-300,59,59,59
31.22,1014,-2984,-344,20608,592,-162,84,59,59
31.24,1018,-3016,-348,20448,623,3,121,59,59
31.26,1007,-3268,-368,20504,600,16,136,59,59
31.28,1006,-3340,-164,20468,559,-155,98,59,59
31.30,1009,-3396,-324,20516,431,-282,24,59,59
31.32,1014,-3240,-360,20464,447,-472,-2,59,59
31.34,1009,-3228,-356,20504,456,-545,-6,59,59
31.36,1005,-3112,-344,20508,418,-491,-1,59,59
31.38,1015,-3200,-388,20404,425,-457,12,59,59
31.40,1015,-3144,-312,20696,356,-399,28,59,59
31.42,1019,-3288,-284,20396,368,-402,85,59,59
31.44,1013,-3300,-400,20348,394,-493,56,59,59
31.46,1004,-3180,-368,20420,447,-613,40,59,59
31.48,1020,-3096,-392,20488,521,-558,10,59,59
31.50,1006,-2980,-172,20640,455,-344,73,59,59
31.52,1013,-3272,-128,20392,328,-248,45,59,59
31.54,1016,-3372,-444,20396,355,-440,-39,59,59
31.56,1017,-3280,-480,20524,558,-707,-36,59,59
31.58,1004,-2892,-352,20524,684,-664,42,59,59
31.60,1008,-2976,-192,20456,535,-320,109,59,59
31.62,1016,-3276,-276,20360,396,-287,16,59,59
31.64,1012,-3480,-420,20500,475,-557,-67,59,59
31.66,1020,-3076,-396,20564,688,-628,-23,59,59
31.68,1017,-3108,-132,20396,623,-467,22,59,59
31.70,1008,-3236,-112,20456,436,-379,7,59,59
31.72,1004,-3424,-260,20592,314,-499,-22,59,59
31.74,1015,-3208,-320,20524,354,-685,-19,59,59
31.76,1004,-2980,-204,20448,387,-647,28,59,59
31.78,1010,-3096,-312,20392,342,-536,33,59,59
31.80,1014,-3128,-312,20500,292,-485,43,59,59
31.82,1002,-3260,-408,20504,296,-542,11,59,59
31.84,1009,-3120,-320,20512,341,-570,-17,59,59
31.86,1017,-2984,-360,20472,392,-518,-4,59,59
31.88,999,-2968,-328,20468,455,-401,11,59,59
31.90,1009,-3052,-348,20600,490,-258,37,59,59
31.92,1020,-3092,-256,20540,421,-257,35,59,59
31.94,1009,-3284,-264,20508,419,-366,22,59,59
31.96,1015,-3256,-320,20612,428,-469,14,59,59
31.98,1017,-3136,-244,20508,409,-515,31,59,59
32.00,1004,-3036,-304,20344,359,-518,16,59,59
32.02,1014,-3084,-344,20520,363,-518,-7,59,59
32.04,1010,-3168,-380,20492,355,-511,-28,59,59
32.06,1010,-3024,-360,20468,388,-480,-20,59,59
32.08,1014,-3052,-440,20456,464,-454,-19,59,59
32.10,1002,-2936,-380,20560,481,-280,34,59,59
32.12,1017,-3064,-252,20424,440,-90,21,59,59
32.14,1013,-3248,-320,20556,396,-103,37,59,59
32.16,1016,-3440,-364,20560,412,-221,2,59,59
32.18,1004,-3248,-304,20488,516,-346,40,59,59
32.20,1008,-3132,-256,20556,473,-353,69,59,59
32.22,1022,-3152,-328,20540,369,-331,32,59,59
32.24,1012,-3116,-296,20480,360,-362,4,59,59
32.26,1004,-3208,-448,20568,404,-409,43,59,59
32.28,1014,-3128,-304,20400,450,-429,29,59,59
32.30,1005,-3220,-288,20480,420,-459,27,59,59
32.32,1014,-3148,-420,20440,436,-430,23,59,59
32.34,1013,-3028,-384,20500,413,-370,46,59,59
32.36,1020,-3244,-332,20532,422,-326,40,59,59
32.38,1015,-3232,-408,20376,442,-370,50,59,59
32.40,1004,-3228,-404,20340,518,-417,-5,59,59
32.42,1014,-3244,-188,20552,506,-416,49,59,59
32.44,1007,-3152,-360,20452,433,-426,41,59,59
32.46,1016,-3364,-320,20400,372,-478,54,59,59
32.48,1008,-3280,-212,20524,334,-534,44,59,59
32.50,1018,-3168,-472,20520,403,-625,26,59,59
32.52,1004,-3076,-324,20628,436,-615,54,59,59
32.54,1005,-3016,-300,20492,414,-519,51,59,59
32.56,1018,-3168,-320,20468,373,-468,53,59,59
32.58,1017,-3128,-456,20488,414,-495,52,59,59
32.60,1005,-3168,-388,20516,477,-578,22,59,59
32.62,1004,-3088,-256,20476,424,-527,11,59,59
32.64,1004,-3116,-256,20564,335,-483,21,59,59
32.66,1019,-3160,-436,20552,368,-562,8,59,59
32.68,1004,-3156,-352,20628,430,-588,41,59,59
32.70,1017,-3100,-448,20472,481,-542,54,59,59
32.72,1006,-3100,-304,20508,489,-477,55,59,59
32.74,1008,-3144,-296,20460,397,-377,28,59,59
32.76,1008,-3164,-388,20500,382,-375,48,59,59
32.78,1015,-3212,-392,20484,420,-415,55,59,59
32.80,1006,-3128,-292,20436,426,-506,52,59,59
32.82,1017,-3104,-300,20504,383,-556,26,59,59
32.84,1016,-3040,-264,20548,411,-660,31,59,59
32.86,1018,-3072,-364,20488,404,-648,26,59,59
32.88,1024,-3164,-264,20516,436,-662,54,59,59
32.90,1021,-2976,-288,20536,299,-612,24,59,59
32.92,1017,-3028,-388,20528,305,-528,17,59,59
32.94,1004,-3232,-424,20424,355,-546,4,59,59
32.96,1000,-2920,-472,20628,517,-545,11,59,59
32.98,1007,-2848,-396,20452,546,-442,48,59,59
33.00,1009,-3036,-260,20440,494,-228,47,59,59
33.02,1005,-3240,-384,20516,508,-333,23,59,59
33.04,1010,-3100,-320,20620,546,-458,42,59,59
33.06,1008,-3140,-472,20560,562,-535,3,59,59
33.08,1010,-3088,-368,20520,608,-538,48,59,59
33.10,1022,-3132,-344,20472,560,-544,28,59,59
33.12,1012,-3108,-312,20592,545,-611,53,59,59
33.14,1007,-2988,-324,20608,447,-553,12,59,59
33.16,1008,-3072,-296,20476,436,-516,26,59,59
33.18,1015,-3092,-356,20456,433,-487,22,59,59
33.20,1015,-3096,-368,20396,465,-497,52,59,59
33.22,1024,-3016,-340,20492,467,-504,86,59,59
33.24,1005,-3008,-360,20468,499,-586,98,59,59
33.26,1011,-3056,-144,20704,702,-746,142,59,59
33.28,1014,-2744,-236,20512,437,-597,95,59,59
33.30,1024,-3000,-388,20332,490,-495,69,59,59
33.32,1007,-3004,-196,20532,473,-527,73,59,59
33.34,1007,-3044,-308,20556,526,-629,73,59,59
33.36,1018,-2992,-276,20456,492,-646,-22,59,59
33.38,1003,-3064,-376,20540,540,-644,42,59,59
33.40,1006,-3036,-172,20568,601,-697,88,59,59
33.42,1015,-2912,-288,20492,425,-647,11,59,59
33.44,1017,-2924,-28,20788,799,-671,167,59,59
33.46,1020,-2776,-440,20444,266,-244,12,59,59
33.48,1014,-3084,-452,20560,309,-224,46,59,59
33.50,1026,-3348,-228,20484,340,-436,47,59,59
33.52,1005,-3180,-356,20540,384,-752,1,59,59
33.54,1009,-2848,-188,20480,377,-861,-44,59,59
33.56,1008,-2628,-308,20592,354,-697,-15,59,59
33.58,1012,-2800,-208,20548,288,-486,18,59,59
33.60,1021,-2776,-304,20536,238,-344,26,59,59
33.62,1009,-3012,-308,20524,172,-293,-7,59,59
33.64,1013,-3120,-332,20508,217,-454,-8,59,59
33.66,1008,-3140,-404,20556,290,-663,-52,59,59
33.68,1021,-2936,-332,20444,295,-695,-49,59,59
33.70,1010,-2692,-380,20488,305,-642,-61,59,59
33.72,1010,-2884,-468,20652,305,-443,-38,59,59
33.74,1017,-2784,-416,20492,343,-307,5,59,59
33.76,1024,-2832,-496,20680,420,-254,29,59,59
33.78,1005,-2900,-436,20580,472,-298,35,59,59
33.80,1011,-3032,-300,20620,470,-322,22,59,59
33.82,1007,-2872,-380,20432,480,-351,46,59,59
33.84,1015,-2880,-368,20540,481,-362,53,59,59
33.86,1020,-2840,-360,20488,465,-318,18,59,59
33.88,1025,-2952,-400,20484,452,-280,94,59,59
33.90,1013,-3004,-360,20628,448,-273,60,59,59
33.92,1016,-3016,-376,20532,457,-346,32,59,59
33.94,1020,-3004,-380,20540,457,-385,68,59,59
33.96,1006,-3068,-236,20480,405,-430,62,59,59
33.98,1018,-3016,-356,20592,356,-492,18,59,59
34.00,1020,-2992,-412,20472,415,-520,15,59,59
34.02,1012,-2904,-356,20584,432,-496,-6,59,59
34.04,1031,-2868,-428,20548,471,-442,42,59,59
34.06,1012,-2872,-328,20460,372,-377,30,59,59
34.08,1004,-2936,-312,20480,381,-369,23,59,59
34.10,1017,-2892,-396,20432,421,-375,23,59,59
34.12,1017,-2868,-484,20488,474,-343,59,59,59
34.14,1011,-2904,-396,20488,492,-274,51,59,59
34.16,1005,-2928,-320,20452,491,-312,26,59,59
34.18,1018,-3016,-356,20536,488,-325,39,59,59
34.20,1022,-2936,-336,20556,458,-368,20,59,59
34.22,1027,-3000,-376,20528,477,-357,-8,59,59
34.24,1021,-3080,-372,20388,499,-393,2,59,59
34.26,1020,-2916,-372,20540,474,-420,7,59,59
34.28,1006,-2960,-380,20448,482,-420,20,59,59
34.30,1013,-2856,-404,20548,491,-371,46,59,59
34.32,1024,-2892,-308,20536,478,-305,21,59,59
34.34,1024,-3084,-328,20496,471,-344,34,59,59
34.36,1022,-3052,-340,20388,494,-407,12,59,59
34.38,1021,-3076,-308,20496,553,-515,40,59,59
34.40,1025,-3004,-352,20500,558,-504,25,59,59
34.42,1016,-2960,-276,20448,506,-471,60,59,59
34.44,1017,-2860,-344,20492,437,-419,25,59,59
34.46,1028,-2960,-412,20636,427,-445,36,59,59
34.48,1015,-3072,-348,20600,477,-447,29,59,59
34.50,1006,-3016,-328,20484,479,-468,37,59,59
34.52,1013,-3028,-288,20380,439,-463,14,59,59
34.54,1015,-2988,-288,20512,420,-495,35,59,59
34.56,1020,-3072,-308,20604,421,-530,4,59,59
34.58,1016,-2900,-316,20484,440,-508,19,59,59
34.60,1017,-2976,-336,20668,473,-491,21,59,59
34.62,1022,-2960,-272,20560,435,-479,42,59,59
34.64,1012,-3056,-204,20516,349,-441,15,59,59
34.66,1026,-2940,-312,20452,355,-471,20,59,59
34.68,1024,-2956,-392,20608,342,-555,-14,59,59
34.70,1020,-2884,-388,20536,410,-538,8,59,59
34.72,1013,-2872,-380,20584,450,-478,31,59,59
34.74,1017,-2928,-344,20536,400,-417,44,59,59
34.76,1024,-2996,-388,20496,406,-441,17,59,59
34.78,1016,-2976,-360,20592,395,-495,-32,59,59
34.80,1024,-3092,-276,20496,408,-641,-103,59,59
34.82,1009,-2916,-292,20512,442,-730,-86,59,59
34.84,1015,-2696,-388,20688,424,-670,-100,59,59
34.86,1021,-2784,-368,20620,461,-589,-42,59,59
34.88,1022,-2896,-256,20488,416,-437,-88,59,59
34.90,1030,-2780,-320,20616,409,-421,-62,59,59
34.92,1007,-2916,-372,20612,371,-286,-92,59,59
34.94,1012,-3100,-448,20480,403,-279,-107,59,59
34.96,1024,-3036,-268,20512,402,-350,-38,59,59
34.98,1007,-3028,-280,20556,291,-423,-164,59,59
35.00,1016,-2536,-256,20528,140,-240,-196,59,59
35.02,1025,-2920,-32,20472,84,158,-362,59,59
35.04,1025,-2716,-460,20424,4,62,-168,59,59
35.06,1022,-3256,-548,20436,197,-16,-214,59,59
35.08,1017,-3232,-624,20368,337,-500,-24,59,59
35.10,1017,-3288,-620,20368,617,-824,-153,59,59
35.12,1011,-2968,-396,20616,648,-1134,-182,59,59
35.14,1010,-2600,-292,20820,498,-863,-34,59,59
35.16,1014,-2740,-336,20528,338,-482,-128,59,59
35.18,1015,-2764,-496,20612,376,-372,-46,59,59
35.20,1021,-2912,-496,20344,427,-364,-8,59,59
35.22,1020,-2996,-360,20512,491,-509,-8,59,59
35.24,1022,-2756,-436,20508,421,-436,-31,59,59
35.26,1023,-2900,-556,20384,428,-385,-117,59,59
35.28,1032,-2996,-612,20424,595,-573,-68,59,59
35.30,1017,-2840,-452,20572,712,-439,-11,59,59
35.32,1026,-2780,-224,20600,572,-298,-12,59,59
35.34,1017,-2956,-300,20692,382,-256,-44,59,59
35.36,1022,-3068,-388,20596,328,-359,-81,59,59
35.38,1012,-3036,-392,20496,382,-443,-95,59,59
35.40,1011,-2932,-436,20404,448,-554,-61,59,59
35.42,1025,-2884,-524,20524,453,-555,-126,59,59
35.44,1030,-2852,-460,20564,541,-477,-106,59,59
35.46,1010,-2664,-308,20624,544,-317,-77,59,59
35.48,1024,-2744,-368,20588,462,20,-55,59,59
35.50,1012,-2972,-472,20564,528,260,6,59,59
35.52,1026,-2976,-476,20440,643,361,-39,59,59
35.54,1025,-3272,-356,20552,734,137,-8,59,59
35.56,1024,-3212,-336,20468,595,-183,99,59,59
35.58,1012,-3020,-232,20552,419,-211,-65,59,59
35.60,1009,-3088,-264,20528,363,-283,-44,59,59
35.62,1013,-3052,-408,20528,236,-352,-48,59,59
35.64,1017,-3248,-432,20424,313,-496,-84,59,59
35.66,1010,-3004,-344,20340,356,-619,-35,59,59
35.68,1018,-2992,-324,20388,339,-585,-18,59,59
35.70,1014,-2988,-412,20372,356,-544,5,59,59
35.72,1024,-2996,-424,20540,404,-505,50,59,59
35.74,1024,-2948,-352,20544,459,-474,64,59,59
35.76,1011,-3028,-340,20360,358,-469,25,59,59
35.78,1029,-3048,-336,20496,316,-537,9,59,59
35.80,1025,-2952,-556,20576,357,-508,11,59,59
35.82,1027,-2924,-488,20464,449,-537,62,59,59
35.84,1018,-3000,-348,20652,395,-479,37,59,59
35.86,1031,-3000,-336,20416,364,-467,28,59,59
35.88,1030,-3056,-500,20412,401,-535,-38,50,55
35.90,1015,-2956,-412,20580,494,-591,-8,50,55
35.92,1026,-2932,-344,20468,547,-546,6,50,55
35.94,1024,-2856,-404,20548,489,-498,34,50,55
35.96,1013,-3000,-360,20548,439,-416,5,50,55
35.98,1026,-2968,-392,20480,413,-385,11,50,55
36.00,1019,-3060,-472,20508,433,-393,11,50,55
36.02,1026,-3080,-416,20532,491,-466,3,50,55
36.04,1034,-2988,-452,20452,570,-538,6,50,55
36.06,1028,-2944,-432,20580,602,-644,3,50,55
36.08,1025,-2896,-440,20668,593,-600,-1,50,55
36.10,1025,-2888,-296,20568,510,-492,-19,50,55
36.12,1027,-2852,-424,20452,512,-472,3,50,55
36.14,1016,-2912,-340,20540,518,-447,36,50,55
36.16,1020,-2964,-336,20524,542,-424,-4,50,55
36.18,1007,-3076,-340,20496,533,-486,2,50,55
36.20,1018,-3072,-288,20636,504,-677,14,50,55
36.22,1018,-2824,-308,20636,512,-724,-47,50,55
36.24,1017,-2828,-296,20448,473,-626,-59,50,55
36.26,1015,-2700,-304,20596,431,-498,0,50,55
36.28,1020,-2768,-484,20336,373,-432,84,50,55
36.30,1029,-2772,-408,20604,279,-425,144,50,55
36.32,1015,-2944,-368,20380,348,-216,18,50,55
36.34,1019,-3180,-444,20572,454,-322,6,50,55
36.36,1025,-3128,-460,20476,547,-516,-92,50,55
36.38,1020,-3080,-276,20444,554,-721,-74,50,55
36.40,1006,-2860,-396,20348,361,-935,-22,50,55
36.42,1011,-2612,-288,20592,455,-728,-37,50,55
36.44,1006,-2560,-392,20576,361,-374,-57,50,55
36.46,1026,-3004,-300,20512,378,-327,68,50,55
36.48,1020,-3136,-352,20744,361,-472,-20,50,55
36.50,1016,-2760,-400,20692,355,-533,-19,50,55
36.52,1020,-3028,-500,20584,434,-643,-91,50,55
36.54,1014,-2656,-412,20572,567,-665,21,50,55
36.56,1016,-2772,-356,20536,512,-572,-7,50,55
36.58,1016,-2572,-292,20772,441,-442,43,50,55
36.60,1018,-2684,-284,20596,373,-259,23,50,55
36.62,1016,-2832,-320,20512,346,-181,65,50,55
36.64,1020,-2960,-616,20540,405,-269,97,50,55
36.66,1015,-3084,-464,20588,475,-387,62,50,55
36.68,1026,-2900,-368,20580,498,-451,42,50,55
36.70,1021,-2796,-440,20556,513,-442,7,50,55
36.72,1031,-2720,-300,20432,456,-388,37,50,55
36.74,1028,-2820,-396,20604,416,-312,87,50,55
36.76,1012,-2928,-408,20552,446,-292,81,50,55
36.78,1028,-3008,-392,20488,465,-250,47,50,55
36.80,1013,-3048,-324,20528,442,-348,64,50,55
36.82,1022,-3016,-424,20564,469,-429,55,50,55
36.84,1012,-2920,-376,20628,451,-387,1,50,55
36.86,1028,-2912,-320,20536,463,-409,26,50,55
36.88,1017,-2936,-336,20672,461,-446,41,50,55
36.90,1009,-3128,-336,20488,397,-679,25,50,55
36.92,1010,-2924,-424,20552,337,-779,-50,50,55
36.94,1026,-2936,-392,20584,442,-737,-94,50,55
36.96,1013,-2720,-352,20584,489,-600,-55,50,55
36.98,1018,-2732,-316,20488,502,-508,34,50,55
37.00,1021,-2744,-244,20604,441,-358,61,50,55
37.02,1028,-2908,-368,20556,309,-352,-28,50,55
37.04,1013,-2892,-512,20476,334,-440,7,50,55
37.06,1012,-2780,-508,20652,447,-395,23,50,55
37.08,1024,-2820,-332,20660,462,-420,58,50,55
37.10,1018,-2912,-272,20536,415,-451,82,50,55
37.12,1013,-2856,-344,20520,375,-484,4,50,55
37.14,1013,-2816,-528,20432,415,-488,-14,50,55
37.16,1018,-2892,-360,20588,494,-525,27,50,55
37.18,1024,-2856,-420,20640,456,-563,12,50,55
37.20,1012,-2848,-432,20552,488,-594,10,50,55
37.22,1022,-2892,-308,20556,441,-552,-23,50,55
37.24,1009,-2812,-412,20568,384,-552,-55,50,55
37.26,1034,-2872,-372,20596,310,-615,-48,50,55
37.28,1012,-2928,-484,20536,367,-642,-42,50,55
37.30,1008,-2776,-312,20576,374,-688,-80,50,55
37.32,1026,-2768,-400,20600,344,-696,-82,50,55
37.34,1028,-2664,-376,20556,310,-658,5,50,55
37.36,1011,-2580,-448,20704,310,-531,1,50,55
37.38,1011,-2624,-328,20492,339,-422,33,50,55
37.40,1018,-2780,-360,20584,297,-509,75,50,55
37.42,1027,-3004,-444,20624,319,-669,14,50,55
37.44,1029,-2856,-424,20520,333,-831,-43,50,55
37.46,1013,-2932,-440,20448,393,-1016,-51,50,55
37.48,1016,-2740,-536,20664,362,-994,-68,50,55
37.50,1013,-2532,-364,20516,350,-781,-55,50,55
37.52,1012,-2452,-520,20672,366,-499,-14,50,55
37.54,1030,-2524,-488,20648,327,-269,92,50,55
37.56,1016,-2644,-408,20512,340,-160,102,50,55
37.58,1031,-2700,-312,20608,369,-148,140,50,55
37.60,1015,-2700,-332,20540,321,-272,78,50,55
37.62,1020,-2896,-440,20464,314,-372,18,50,55
37.64,1014,-2668,-452,20616,405,-420,33,50,55
37.66,1010,-2744,-404,20568,396,-406,56,50,55
37.68,1017,-2532,-408,20592,306,-342,81,50,55
37.70,1021,-2672,-452,20652,289,-241,58,50,55
37.72,1029,-2852,-528,20504,272,-282,66,50,55
37.74,1019,-2824,-432,20672,372,-348,46,50,55
37.76,1029,-2816,-436,20664,335,-395,76,50,55
37.78,1012,-2676,-528,20568,317,-318,41,50,55
37.80,1027,-2812,-656,20452,316,-293,37,50,55
37.82,1017,-2764,-520,20728,387,-253,97,50,55
37.84,1018,-2816,-464,20692,404,-299,52,50,55
37.86,1030,-2688,-476,20516,377,-318,110,50,55
37.88,1031,-2728,-340,20440,324,-296,37,50,55
37.90,1017,-2772,-452,20596,224,-322,11,50,55
37.92,1024,-2612,-392,20556,159,-351,43,50,55
37.94,1014,-2836,-496,20552,144,-242,-2,50,55
37.96,1024,-2800,-588,20620,145,-231,-51,50,55
37.98,1014,-2724,-456,20444,166,-136,-14,50,55
38.00,1021,-2624,-484,20952,51,-141,59,50,55
38.02,1019,-2444,-424,20704,-105,297,120,50,55
38.04,1021,-2720,-556,20648,-226,643,85,50,55
38.06,1028,-3032,-640,20776,-73,806,68,50,55
38.08,1034,-3360,-488,20248,-44,757,-230,50,55
38.10,1011,-2980,-876,20252,-30,517,-118,50,55
38.12,1017,-3120,-840,20196,125,350,-83,50,55
38.14,1032,-3188,-784,20144,188,135,4,50,55
38.16,1019,-3272,-868,20376,198,-73,-42,50,55
38.18,1032,-3268,-692,20364,239,-303,32,50,55
38.20,1030,-3108,-680,20408,211,-267,-33,50,55
38.22,1025,-3124,-636,20564,191,-225,-51,50,55
38.24,1032,-3112,-668,20600,166,-290,-55,50,55
38.26,1030,-3140,-736,20628,45,-388,10,50,55
38.28,1035,-3400,-600,20992,234,-671,-12,50,55
38.30,1027,-3056,-556,20528,4,-346,-33,50,55
38.32,1030,-3112,-648,20008,-23,27,-19,50,55
38.34,1030,-3440,-896,19848,154,-263,-90,50,55
38.36,1035,-3300,-1340,20064,219,-724,-137,50,55
38.38,1038,-3136,-940,20520,433,-889,-14,50,55
38.40,1030,-3068,-780,20540,312,-549,64,50,55
38.42,1030,-3088,-528,20496,307,-445,-8,50,55
38.44,1024,-3140,-1136,20488,296,-546,13,50,55
38.46,1031,-2900,-860,20452,355,-622,55,50,55
38.48,1021,-2904,-1076,20468,294,-339,91,50,55
38.50,1027,-3128,-856,20432,275,-206,112,50,55
38.52,1036,-3072,-956,20216,357,-219,136,50,55
38.54,1034,-3208,-772,20460,385,-321,78,50,55
38.56,1040,-3160,-984,20484,436,-405,73,50,55
38.58,1028,-3128,-988,20520,429,-416,108,50,55
38.60,1022,-2944,-980,20412,429,-276,135,50,55
38.62,1022,-3180,-760,20516,421,-208,108,50,55
38.64,1019,-3184,-824,20480,435,-338,119,50,55
38.66,1036,-3188,-856,20308,405,-294,108,50,55
38.68,1028,-3188,-828,20496,352,-295,133,50,55
38.70,1038,-3188,-872,20536,360,-404,72,50,55
38.72,1027,-3180,-880,20576,353,-449,51,50,55
38.74,1038,-3084,-936,20400,358,-385,101,50,55
38.76,1024,-3216,-924,20348,411,-345,82,50,55
38.78,1040,-3144,-900,20540,406,-442,83,50,55
38.80,1035,-3096,-844,20452,433,-366,95,50,55
38.82,1032,-3072,-896,20488,376,-308,144,50,55
38.84,1038,-3328,-968,20520,350,-382,123,50,55
38.86,1029,-3204,-796,20368,427,-400,89,52,53
38.88,1038,-3276,-812,20396,362,-272,75,52,53
38.90,1024,-3308,-848,20580,367,-300,127,52,53
38.92,1038,-3316,-952,20468,424,-336,-2,52,53
38.94,1036,-3140,-936,20300,381,-360,101,52,53
38.96,1027,-3132,-1036,20392,450,-259,23,52,53
38.98,1027,-3172,-896,20332,386,-322,37,52,53
39.00,1025,-2984,-1172,20460,482,-420,63,52,53
39.02,1033,-3012,-816,20512,412,-62,138,52,53
39.04,1024,-3340,-928,20316,394,68,151,52,53
39.06,1039,-3404,-916,20296,490,-404,-54,52,53
39.08,1037,-3360,-952,20372,386,-382,52,52,53
39.10,1025,-3328,-832,20468,419,-427,3,52,53
39.12,1038,-3380,-772,20340,430,-489,-12,52,53
39.14,1033,-3280,-916,20516,387,-525,0,52,53
39.16,1035,-3356,-880,20432,415,-642,-16,52,53
39.18,1026,-3076,-908,20360,421,-515,-22,52,53
39.20,1040,-3252,-872,20480,339,-421,24,52,53
39.22,1018,-3248,-880,20616,402,-509,51,52,53
39.24,1021,-3036,-984,20332,378,-392,18,52,53
39.26,1036,-3152,-944,20400,372,-350,61,52,53
39.28,1044,-3280,-976,20424,447,-302,-2,52,53
39.30,1032,-3284,-912,20388,492,-368,77,52,53
39.32,1032,-3216,-1044,20448,488,-462,75,52,53
39.34,1030,-3388,-844,20376,476,-422,8,52,53
39.36,1030,-3416,-884,20552,481,-486,8,52,53
39.38,1032,-3180,-884,20512,459,-467,11,52,53
39.40,1022,-3340,-940,20396,408,-561,-76,52,53
39.42,1024,-3320,-908,20496,445,-749,-57,52,53
39.44,1020,-3100,-916,20536,487,-660,-58,52,53
39.46,1033,-3104,-888,20496,398,-448,6,52,53
39.48,1036,-3384,-820,20448,368,-497,-8,52,53
39.50,1031,-3176,-908,20248,461,-755,-46,52,53
39.52,1026,-3084,-860,20316,405,-675,-37,52,53
39.54,1029,-3124,-904,20512,372,-536,-11,52,53
39.56,1027,-3168,-940,20432,431,-616,-42,52,53
39.58,1021,-2964,-996,20460,490,-566,2,52,53
39.60,1020,-2952,-932,20252,461,-411,37,52,53
39.62,1012,-3000,-824,20548,477,-390,76,52,53
39.64,1032,-3108,-804,20592,399,-312,118,52,53
39.66,1039,-3292,-920,20468,417,-253,78,52,53
39.68,1047,-3352,-1048,20516,445,-286,22,52,53
39.70,1042,-3284,-1012,20380,524,-484,29,52,53
39.72,1038,-3200,-812,20476,534,-529,-17,52,53
39.74,1026,-3108,-772,20512,449,-463,13,52,53
39.76,1028,-3200,-752,20532,412,-441,27,52,53
39.78,1015,-3168,-868,20432,375,-324,-12,52,53
39.80,1028,-3168,-1016,20448,402,-284,39,52,53
39.82,1032,-3360,-1012,20524,398,-383,9,52,53
39.84,1026,-3192,-900,20532,394,-401,26,52,53
39.86,1032,-3176,-872,20404,391,-277,-41,52,53
39.88,1038,-3292,-956,20436,422,-331,-26,52,53
39.90,1044,-3248,-896,20492,442,-454,-1,52,53
39.92,1026,-3092,-848,20468,368,-302,-2,52,53
39.94,1026,-3296,-808,20472,301,-231,3,52,53
39.96,1029,-3352,-924,20404,353,-373,25,52,53
39.98,1042,-3292,-896,20380,405,-388,3,52,53
40.00,1036,-3396,-916,20424,382,-421,-13,52,53
40.02,1033,-3332,-1032,20336,355,-496,-63,52,53
40.04,1037,-3232,-880,20224,355,-575,-47,52,53
40.06,1033,-3428,-816,20264,300,-774,16,52,53
40.08,1019,-2520,-1172,20872,433,-801,340,52,53
40.10,1023,-3176,-628,20476,131,-17,13,52,53
40.12,1040,-3468,-1152,20480,373,-308,100,52,53
40.14,1028,-3312,-980,20656,532,-380,238,52,53
40.16,1029,-3424,-936,20280,445,-432,113,52,53
40.18,1021,-2992,-1124,20352,669,-682,245,52,53
40.20,1030,-2960,-1008,20400,639,-532,342,52,53
40.22,1025,-2996,-948,20516,708,-237,270,52,53
40.24,1028,-3404,-800,20248,643,-212,330,52,53
40.26,1017,-3476,-828,20444,685,-328,128,52,53
40.28,1030,-3496,-940,20340,690,-684,165,52,53
40.30,1026,-3268,-980,20428,735,-833,81,52,53
40.32,1042,-3132,-892,20440,715,-745,16,52,53
40.34,1024,-3224,-788,20476,700,-632,-17,52,53
40.36,1026,-3048,-640,20576,658,-607,42,52,53
40.38,1026,-3060,-692,20400,639,-494,-8,52,53
40.40,1024,-3212,-628,20540,576,-486,-37,52,53
40.42,1029,-3164,-808,20432,588,-523,21,52,53
40.44,1021,-3180,-636,20428,528,-404,-84,52,53
40.46,1026,-2808,-644,20612,438,-265,132,52,53
40.48,1020,-3392,-864,20304,376,-288,-60,52,53
40.50,1017,-3148,-912,20600,525,-481,128,52,53
40.52,1040,-3224,-688,20648,473,-266,18,52,53
40.54,1037,-3188,-812,20528,462,-269,70,52,53
40.56,1017,-3192,-740,20268,449,-263,49,52,53
40.58,1026,-3244,-716,20212,378,-297,43,52,53
40.60,1036,-3344,-776,20296,427,-347,23,52,53
40.62,1025,-3268,-840,20484,449,-393,13,52,53
40.64,1024,-3216,-752,20516,450,-301,17,52,53
40.66,1035,-3428,-784,20508,427,-338,-47,52,53
40.68,1017,-3344,-772,20440,448,-578,-20,52,53
40.70,1024,-3124,-736,20604,456,-519,-52,52,53
40.72,1029,-3272,-812,20360,420,-516,-45,52,53
40.74,1010,-3168,-852,20608,447,-492,16,52,53
40.76,1018,-3172,-716,20404,464,-381,22,52,53
40.78,1024,-3312,-700,20268,420,-468,-20,52,53
40.80,1017,-3156,-836,20548,435,-661,12,52,53
40.82,1021,-3116,-824,20476,446,-554,-4,52,53
40.84,1025,-3144,-808,20484,435,-468,50,52,53
40.86,1012,-3280,-640,20552,371,-366,67,52,53
40.88,1024,-3200,-740,20308,303,-383,28,52,53
40.90,1030,-3224,-920,20284,371,-485,14,52,53
40.92,1016,-3120,-924,20320,457,-451,53,52,53
40.94,1038,-3156,-888,20584,497,-348,112,52,53
40.96,1028,-3196,-740,20440,521,-375,133,52,53
40.98,1038,-3276,-756,20432,536,-423,66,52,53
41.00,1039,-3212,-664,20444,483,-458,61,52,53
41.02,1035,-3172,-760,20420,381,-454,34,52,53
41.04,1038,-3156,-960,20520,413,-462,10,52,53
41.06,1039,-3104,-844,20396,476,-419,-3,52,53
41.08,1021,-3244,-840,20432,434,-410,44,52,53
41.10,1030,-3344,-832,20604,446,-453,-10,52,53
41.12,1031,-3284,-748,20460,444,-521,-23,52,53
41.14,1024,-3096,-856,20468,446,-581,-63,52,53
41.16,1028,-3120,-840,20556,462,-561,0,52,53
41.18,1023,-3112,-820,20340,459,-446,4,52,53
41.20,1034,-3252,-844,20368,440,-503,4,52,53
41.22,1035,-3112,-816,20568,462,-569,-23,52,53
41.24,1020,-3164,-696,20508,403,-583,-43,52,53
41.26,1017,-3012,-692,20512,327,-476,7,52,53
41.28,1019,-3108,-776,20332,330,-422,17,52,53
41.30,1021,-3140,-712,20512,344,-363,-48,52,53
41.32,1014,-3268,-836,20548,329,-582,60,52,53
41.34,1023,-3116,-864,20540,333,-389,-74,52,53
41.36,1029,-3176,-976,20520,359,-433,-19,52,53
41.38,1033,-2944,-892,20548,437,-499,43,52,53
41.40,1034,-3052,-776,20596,388,-398,46,52,53
41.42,1023,-3092,-812,20572,337,-319,95,52,53
41.44,1040,-3248,-876,20344,378,-320,42,52,53
41.46,1028,-3152,-904,20416,448,-416,0,52,53
41.48,1031,-3388,-936,20480,553,-468,9,52,53
41.50,1031,-3160,-708,20424,510,-541,73,52,53
41.52,1026,-3136,-756,20560,433,-295,-56,52,53
41.54,1029,-3180,-804,20372,351,-369,41,52,53
41.56,1018,-3140,-912,20500,385,-345,1,52,53
41.58,1018,-3276,-948,20336,481,-414,25,52,53
41.60,1025,-3180,-800,20476,530,-405,34,52,53
41.62,1032,-3256,-796,20488,484,-405,27,52,53
41.64,1018,-3204,-756,20372,467,-447,19,52,53
41.66,1028,-3172,-736,20380,444,-502,-15,52,53
41.68,1032,-3272,-800,20428,431,-565,-63,52,53
41.70,1023,-3104,-900,20392,461,-557,-51,52,53
41.72,1040,-3100,-800,20560,462,-482,0,52,53
41.74,1035,-3096,-804,20348,444,-442,50,52,53
41.76,1023,-3112,-716,20436,396,-364,24,52,53
41.78,1036,-3208,-788,20480,432,-429,8,52,53
41.80,1013,-3092,-844,20552,439,-520,48,52,53
41.82,1018,-3136,-848,20512,417,-419,29,52,53
41.84,1016,-3160,-752,20600,375,-390,18,52,48
41.86,1020,-3136,-872,20424,386,-419,-14,52,48
41.88,1017,-3140,-844,20384,431,-471,-21,52,48
41.90,1015,-3132,-872,20488,441,-478,20,52,48
41.92,1024,-3144,-888,20512,503,-506,23,52,48
41.94,1013,-3248,-648,20564,489,-410,-42,52,48
41.96,1028,-3124,-804,20520,481,-473,-39,52,48
41.98,1036,-3112,-764,20492,498,-454,-23,52,48
42.00,1034,-3052,-960,20388,515,-454,-22,52,48
42.02,1035,-3036,-784,20568,553,-415,31,52,48
42.04,1024,-3168,-708,20356,490,-352,69,52,48
42.06,1034,-3116,-840,20520,482,-325,61,52,48
42.08,1030,-3260,-840,20456,467,-353,28,52,48
42.10,1018,-3220,-836,20524,522,-425,49,52,48
42.12,1030,-3168,-680,20440,486,-496,36,52,48
42.14,1034,-3108,-784,20540,424,-495,31,52,48
42.16,1021,-2976,-816,20296,396,-359,-27,52,48
42.18,1040,-3156,-860,20408,407,-375,82,52,48
42.20,1017,-3248,-788,20452,414,-347,92,52,48
42.22,1032,-3224,-796,20456,496,-336,48,52,48
42.24,1025,-3200,-740,20484,504,-454,105,52,48
42.26,1024,-3136,-660,20556,460,-352,69,52,48
42.28,1015,-3296,-732,20376,432,-420,7,52,48
42.30,1037,-3296,-844,20424,476,-604,22,52,48
42.32,1037,-3104,-716,20520,480,-541,-6,52,48
42.34,1023,-3096,-744,20376,458,-422,-5,52,48
42.36,1045,-3156,-776,20508,416,-463,48,52,48
42.38,1038,-3152,-676,20592,360,-344,7,52,48
42.40,1040,-3224,-804,20424,359,-335,-27,52,48
42.42,1038,-3084,-776,20400,377,-415,34,52,48
42.44,1044,-3100,-784,20508,362,-304,14,52,48
42.46,1050,-3136,-816,20420,411,-271,36,52,48
42.48,1050,-3268,-812,20184,432,-431,41,52,48
42.50,1043,-3120,-748,20636,473,-443,46,52,48
42.52,1039,-3360,-720,20424,381,-486,-17,52,48
42.54,1043,-3148,-756,20472,376,-535,-15,52,48
42.56,1028,-3156,-852,20408,313,-485,-20,52,48
42.58,1034,-3044,-820,20564,298,-514,20,52,48
42.60,1040,-3152,-772,20488,301,-462,-15,52,48
42.62,1040,-3068,-944,20364,327,-466,16,52,48
42.64,1046,-3312,-904,20376,401,-459,-1,52,48
42.66,1042,-3172,-868,20380,470,-527,-6,52,48
42.68,1037,-3144,-784,20448,469,-556,-16,52,48
42.70,1027,-3032,-804,20452,490,-525,13,52,48
42.72,1036,-3024,-836,20424,462,-374,21,52,48
42.74,1045,-3052,-804,20420,469,-360,30,52,48
42.76,1030,-3120,-804,20628,438,-405,60,52,48
42.78,1052,-3156,-804,20460,419,-286,4,52,48
42.80,1039,-3244,-924,20400,463,-367,-12,52,48
42.82,1045,-3004,-848,20396,492,-483,60,52,48
42.84,1031,-3300,-740,20500,504,-471,9,52,48
42.86,1050,-3184,-740,20520,507,-531,14,52,48
42.88,1052,-3292,-812,20392,446,-495,-13,52,48
42.90,1033,-3180,-684,20376,374,-550,16,52,48
42.92,1048,-2972,-916,20456,333,-443,-4,52,48
42.94,1044,-3136,-936,20464,354,-391,63,52,48
42.96,1028,-3188,-880,20420,402,-342,73,52,48
42.98,1037,-3156,-876,20376,476,-380,22,52,48
43.00,1031,-3136,-908,20516,526,-477,75,52,48
43.02,1036,-2988,-816,20416,496,-369,61,52,48
43.04,1047,-3000,-780,20416,478,-257,96,52,48
43.06,1032,-3220,-820,20384,463,-273,88,52,48
43.08,1039,-3296,-716,20392,435,-322,81,52,48
43.10,1046,-3204,-824,20484,409,-402,22,52,48
43.12,1033,-3264,-856,20304,398,-399,-33,52,48
43.14,1038,-3144,-960,20476,429,-524,36,52,48
43.16,1038,-3012,-884,20440,412,-339,-11,52,48
43.18,1036,-3268,-1016,20596,451,-345,-8,52,48
43.20,1052,-3144,-844,20348,447,-447,51,52,48
43.22,1046,-3208,-764,20416,402,-344,-17,52,48
43.24,1034,-3076,-952,20336,414,-367,44,52,48
43.26,1038,-3180,-752,20388,422,-327,49,52,48
43.28,1050,-3268,-672,20472,412,-361,89,52,48
43.30,1036,-3240,-928,20568,369,-441,29,52,48
43.32,1056,-3284,-796,20352,413,-491,-25,52,48
43.34,1051,-3336,-900,20432,494,-599,4,52,48
43.36,1044,-3044,-660,20556,482,-591,11,52,48
43.38,1034,-3000,-840,20364,381,-429,-14,52,48
43.40,1050,-3068,-836,20496,386,-429,31,52,48
43.42,1054,-3128,-852,20276,400,-392,5,52,48
43.44,1036,-3236,-880,20576,469,-406,52,52,48
43.46,1048,-3224,-804,20504,516,-430,-16,52,48
43.48,1037,-3132,-812,20388,546,-500,33,52,48
43.50,1042,-3252,-792,20496,569,-568,-2,52,48
43.52,1049,-3160,-768,20412,550,-556,14,52,48
43.54,1034,-3172,-664,20468,472,-500,-27,52,48
43.56,1044,-3100,-676,20556,466,-455,-18,52,48
43.58,1041,-3124,-820,20412,392,-424,20,52,48
43.60,1037,-3204,-824,20468,402,-401,-1,52,48
43.62,1028,-3048,-808,20460,428,-367,25,52,48
43.64,1037,-3332,-724,20476,452,-431,16,52,48
43.66,1032,-3008,-728,20432,482,-480,47,52,48
43.68,1048,-3164,-764,20456,404,-376,-18,52,48
43.70,1037,-3052,-832,20448,394,-498,10,52,48
43.72,1039,-3008,-768,20392,388,-371,21,52,48
43.74,1044,-3152,-868,20404,395,-384,47,52,48
43.76,1029,-3116,-872,20476,419,-416,41,52,48
43.78,1038,-3196,-964,20392,436,-378,22,52,48
43.80,1033,-3336,-916,20384,479,-459,30,52,48
43.82,1039,-3100,-732,20388,528,-471,-1,52,48
43.84,1036,-3212,-808,20452,504,-537,-26,52,48
43.86,1028,-3152,-740,20368,514,-546,-6,52,48
43.88,1041,-3004,-652,20452,459,-485,9,52,48
43.90,1043,-3152,-768,20452,356,-408,-8,52,48
43.92,1044,-3180,-840,20544,371,-481,32,52,48
43.94,1044,-3164,-868,20588,398,-436,-2,52,48
43.96,1036,-3092,-816,20396,515,-460,102,52,48
43.98,1031,-3092,-684,20464,385,-363,18,52,48
44.00,1040,-3048,-836,20452,343,-392,47,52,48
44.02,1050,-3180,-828,20468,375,-369,-8,52,48
44.04,1036,-3088,-896,20360,428,-417,78,52,48
44.06,1045,-3228,-816,20380,466,-361,-4,52,48
44.08,1032,-3156,-756,20476,498,-405,86,52,48
44.10,1032,-3208,-796,20468,427,-406,47,52,48
44.12,1043,-3108,-644,20440,412,-385,8,52,48
44.14,1039,-3180,-772,20364,424,-388,4,52,48
44.16,1044,-3180,-852,20684,478,-405,65,52,48
44.18,1040,-3160,-720,20420,426,-425,37,52,48
44.20,1049,-3208,-772,20396,407,-434,39,52,48
44.22,1036,-3060,-824,20416,430,-400,39,52,48
44.24,1042,-3104,-756,20452,416,-380,72,52,48
44.26,1042,-2948,-864,20584,414,-443,153,52,48
44.28,1039,-3076,-624,20532,351,-232,85,52,48
44.30,1050,-3108,-844,20432,315,-288,119,52,48
44.32,1048,-3176,-864,20492,362,-351,79,52,48
44.34,1043,-3248,-864,20392,449,-448,79,52,48
44.36,1056,-3276,-856,20504,479,-531,23,52,48
44.38,1038,-3156,-828,20432,525,-543,87,52,48
44.40,1047,-3192,-744,20404,489,-513,28,52,48
44.42,1040,-3136,-832,20516,441,-471,51,52,48
44.44,1060,-3144,-788,20328,432,-334,-2,52,48
44.46,1048,-3228,-884,20488,460,-362,104,52,48
44.48,1057,-3392,-652,20452,462,-379,61,52,48
44.50,1052,-3272,-872,20484,446,-504,37,52,48
44.52,1050,-3284,-972,20452,555,-637,-5,52,48
44.54,1035,-2980,-808,20488,655,-553,34,52,48
44.56,1034,-2992,-604,20392,562,-418,50,52,48
44.58,1051,-3088,-692,20584,421,-445,140,52,48
44.60,1058,-3204,-724,20340,341,-342,8,52,48
44.62,1050,-3168,-820,20404,373,-348,12,52,48
44.64,1060,-3152,-888,20416,437,-461,116,52,48
44.66,1055,-3132,-764,20360,495,-414,85,52,48
44.68,1056,-3256,-640,20516,440,-481,29,52,48
44.70,1069,-3208,-652,20452,374,-502,37,52,48
44.72,1057,-3076,-876,20620,309,-485,16,52,48
44.74,1068,-2980,-876,20436,364,-431,25,52,48
44.76,1055,-3112,-820,20396,378,-399,82,52,48
44.78,1056,-3092,-844,20432,390,-420,126,52,48
44.80,1060,-3200,-836,20360,415,-357,62,52,48
44.82,1055,-3176,-828,20472,421,-354,39,52,48
44.84,1045,-3160,-960,20584,513,-437,66,52,44
44.86,1065,-3124,-888,20376,533,-420,-22,52,44
44.88,1068,-3184,-748,20528,526,-506,83,52,44
44.90,1048,-3320,-608,20468,446,-503,53,52,44
44.92,1057,-3180,-696,20524,366,-492,9,52,44
44.94,1051,-3244,-744,20432,324,-546,-59,52,44
44.96,1048,-3068,-852,20476,386,-608,-50,52,44
44.98,1043,-3076,-836,20480,435,-585,32,52,44
45.00,1044,-3160,-880,20352,400,-449,4,52,44
45.02,1032,-3208,-916,20308,445,-526,-55,52,44
45.04,1064,-3128,-788,20572,481,-597,13,52,44
45.06,1034,-3132,-728,20508,430,-521,33,52,44
45.08,1049,-2996,-772,20460,375,-508,-6,52,44
45.10,1060,-3080,-836,20468,379,-478,5,52,44
45.12,1065,-3068,-820,20520,386,-425,68,52,44
45.14,1057,-3116,-640,20528,341,-365,94,52,44
45.16,1050,-3132,-832,20416,309,-260,-15,52,44
45.18,1044,-3204,-868,20500,335,-316,10,52,44
45.20,1049,-3168,-948,20536,412,-466,60,52,44
45.22,1054,-2960,-940,20568,502,-359,118,52,44
45.24,1046,-3076,-828,20404,527,-185,192,52,44
45.26,1047,-3204,-628,20432,474,-46,95,52,44
45.28,1050,-3184,-880,20640,415,-309,167,52,44
45.30,1044,-3108,-752,20424,411,-81,-25,52,44
45.32,1058,-3200,-868,20344,480,-252,42,52,44
45.34,1053,-3284,-784,20416,503,-290,83,52,44
45.36,1043,-3216,-776,20476,490,-359,34,52,44
45.38,1057,-3288,-876,20368,475,-355,49,52,44
45.40,1057,-3160,-956,20252,495,-304,-1,52,44
45.42,1052,-3232,-708,20384,489,-367,52,52,44
45.44,1060,-3132,-828,20448,471,-422,80,52,44
45.46,1053,-3196,-680,20552,391,-373,47,52,44
45.48,1045,-3132,-704,20432,306,-385,52,52,44
45.50,1042,-3240,-780,20416,284,-331,5,52,44
45.52,1054,-3188,-796,20396,271,-399,6,52,44
45.54,1046,-3184,-852,20488,345,-445,-23,52,44
45.56,1044,-3148,-940,20388,441,-438,-8,52,44
45.58,1038,-3248,-980,20512,492,-459,52,52,44
45.60,1049,-3160,-972,20480,567,-454,94,52,44
45.62,1054,-3092,-784,20464,566,-320,133,52,44
45.64,1041,-3284,-772,20504,540,-343,143,52,44
45.66,1058,-3268,-704,20524,466,-391,119,52,44
45.68,1058,-3260,-848,20404,457,-388,47,52,44
45.70,1055,-3232,-688,20496,444,-462,98,52,44
45.72,1054,-3120,-676,20404,371,-409,70,52,44
45.74,1046,-3292,-796,20384,347,-405,-28,52,44
45.76,1060,-3396,-892,20472,387,-530,60,52,44
45.78,1040,-3260,-904,20428,449,-569,27,52,44
45.80,1051,-3304,-808,20452,464,-622,57,52,44
45.82,1044,-3212,-808,20528,456,-559,42,52,44
45.84,1041,-3196,-728,20512,401,-523,2,52,44
45.86,1052,-3196,-704,20492,344,-465,-52,52,44
45.88,1045,-3120,-736,20420,332,-465,15,52,44
45.90,1039,-3364,-836,20472,387,-437,-54,52,44
45.92,1045,-3292,-864,20416,423,-559,-22,52,44
45.94,1052,-3136,-720,20404,408,-516,-30,52,44
45.96,1048,-3092,-812,20472,413,-445,-39,52,44
45.98,1051,-3148,-920,20404,448,-415,-1,52,44
46.00,1061,-3304,-784,20296,442,-466,-43,52,44
46.02,1047,-3132,-728,20444,505,-385,26,52,44
46.04,1041,-3420,-852,20408,429,-398,-2,52,44
46.06,1037,-3076,-808,20388,466,-395,83,52,44
46.08,1049,-3272,-732,20500,392,-368,25,52,44
46.10,1050,-3244,-796,20552,407,-419,-18,52,44
46.12,1050,-3092,-884,20336,439,-422,19,52,44
46.14,1052,-3252,-804,20516,400,-380,5,52,44
46.16,1043,-3144,-824,20556,391,-413,68,52,44
46.18,1037,-3216,-872,20368,370,-397,34,52,44
46.20,1058,-3352,-684,20196,366,-364,-48,52,44
46.22,1056,-3076,-900,20604,433,-525,103,52,44
46.24,1045,-3284,-836,20380,392,-461,-47,52,44
46.26,1033,-3184,-968,20344,513,-502,76,52,44
46.28,1055,-3156,-804,20488,429,-421,-10,52,44
46.30,1052,-3092,-896,20492,413,-482,-24,52,44
46.32,1045,-3044,-904,20456,494,-393,60,52,44
46.34,1047,-3244,-896,20448,536,-328,97,52,44
46.36,1041,-3404,-840,20308,539,-368,40,52,44
46.38,1041,-3296,-800,20544,560,-627,64,52,44
46.40,1047,-3044,-596,20316,469,-446,-15,52,44
46.42,1039,-3260,-764,20484,409,-425,11,52,44
46.44,1040,-3168,-772,20592,373,-408,-1,52,44
46.46,1045,-3216,-840,20508,393,-435,70,52,44
46.48,1042,-3256,-960,20424,438,-450,40,52,44
46.50,1049,-3216,-752,20392,466,-454,29,52,44
46.52,1048,-3176,-704,20544,413,-410,42,52,44
46.54,1044,-3232,-880,20560,339,-412,30,52,44
46.56,1047,-3232,-912,20580,385,-468,74,52,44
46.58,1041,-3168,-884,20380,471,-386,19,52,44
46.60,1040,-3172,-808,20508,429,-387,63,52,44
46.62,1037,-3324,-884,20468,412,-394,47,52,44
46.64,1043,-3276,-760,20492,449,-433,34,52,44
46.66,1045,-3232,-748,20552,401,-383,5,52,44
46.68,1042,-3284,-768,20612,416,-420,-11,52,44
46.70,1041,-3068,-808,20464,415,-418,39,52,44
46.72,1049,-3212,-772,20556,321,-291,51,52,44
46.74,1048,-3220,-832,20388,313,-286,-10,52,44
46.76,1041,-3248,-816,20228,292,-370,24,52,44
46.78,1053,-3176,-872,20352,286,-392,-10,52,44
46.80,1041,-3312,-848,20384,306,-478,30,52,44
46.82,1050,-3152,-860,20460,325,-392,38,52,44
46.84,1042,-3392,-848,20388,399,-357,-34,52,44
46.86,1043,-3308,-808,20212,363,-496,-44,52,44
46.88,1043,-3080,-796,20512,378,-432,-24,52,44
46.90,1040,-3192,-980,20380,332,-352,-31,52,44
46.92,1036,-3124,-1012,20396,490,-427,63,52,44
46.94,1040,-3172,-896,20404,552,-373,26,52,44
46.96,1036,-3400,-800,20500,604,-524,12,52,44
46.98,1044,-3332,-676,20392,565,-607,-12,52,44
47.00,1036,-3304,-696,20400,488,-634,-148,52,44
47.02,1050,-3220,-772,20328,469,-716,-216,52,44
47.04,1056,-2904,-880,20488,464,-675,-53,52,44
47.06,1044,-2856,-872,20432,452,-394,33,52,44
47.08,1028,-3148,-800,20420,393,-224,100,52,44
47.10,1046,-3256,-876,20428,413,-192,113,52,44
47.12,1040,-3348,-804,20564,416,-271,84,52,44
47.14,1037,-3328,-820,20456,443,-401,38,52,44
47.16,1044,-3272,-736,20468,500,-539,1,52,44
47.18,1045,-3236,-844,20340,515,-545,-18,52,44
47.20,1032,-3116,-812,20640,505,-489,17,52,44
47.22,1040,-3100,-672,20432,433,-371,-19,52,44
47.24,1045,-3160,-728,20380,399,-335,62,52,44
47.26,1034,-3192,-848,20412,418,-356,13,52,44
47.28,1051,-3272,-900,20440,442,-434,19,52,44
47.30,1037,-3212,-872,20404,494,-473,2,52,44
47.32,1037,-3104,-816,20392,467,-482,8,52,44
47.34,1030,-3172,-780,20464,443,-485,-6,52,44
47.36,1033,-3096,-704,20412,425,-435,31,52,44
47.38,1040,-3204,-808,20296,421,-433,44,52,44
47.40,1036,-3212,-836,20592,451,-384,20,52,44
47.42,1041,-3280,-700,20380,407,-382,35,52,44
47.44,1031,-3276,-936,20400,393,-416,3,52,44
47.46,1039,-3172,-900,20496,465,-475,15,52,44
47.48,1034,-3300,-764,20460,515,-488,22,52,44
47.50,1043,-3144,-688,20412,457,-469,13,52,44
47.52,1030,-3148,-776,20488,376,-416,-12,52,44
47.54,1039,-3204,-792,20404,352,-373,-19,52,44
47.56,1049,-3092,-960,20416,432,-370,63,52,44
47.58,1040,-3216,-920,20452,502,-375,67,52,44
47.60,1033,-3264,-704,20344,523,-445,42,52,44
47.62,1034,-3172,-860,20548,493,-437,0,52,44
47.64,1046,-3224,-772,20496,405,-443,-14,52,44
47.66,1041,-3104,-716,20436,367,-353,-19,52,44
47.68,1038,-3148,-964,20344,339,-367,29,52,44
47.70,1050,-3216,-920,20512,412,-409,40,52,44
47.72,1045,-3248,-876,20308,478,-469,12,52,44
47.74,1035,-3192,-816,20484,479,-477,37,52,44
47.76,1034,-3196,-764,20472,420,-488,20,52,44
47.78,1038,-3152,-832,20336,394,-436,8,52,44
47.80,1037,-3248,-768,20456,442,-438,37,52,45
47.82,1036,-3236,-776,20600,463,-385,14,52,45
47.84,1033,-3140,-828,20316,483,-416,27,52,45
47.86,1016,-3132,-764,20396,455,-476,24,52,45
47.88,1028,-3176,-832,20392,439,-418,-7,52,45
47.90,1054,-3144,-844,20524,459,-389,33,52,45
47.92,1034,-3160,-852,20520,443,-351,24,52,45
47.94,1034,-3188,-788,20408,420,-394,7,52,45
47.96,1032,-3160,-860,20232,421,-431,15,52,45
47.98,1044,-3120,-752,20496,445,-436,11,52,45
48.00,1032,-3152,-872,20452,446,-392,29,52,45
48.02,1032,-3228,-820,20376,430,-364,44,52,45
48.04,1032,-3236,-852,20376,464,-389,44,52,45
48.06,1034,-3216,-780,20524,431,-440,34,52,45
48.08,1034,-3288,-700,20344,431,-465,56,52,45
48.10,1045,-3092,-760,20488,398,-411,1,52,45
48.12,1045,-3076,-784,20496,437,-385,3,52,45
48.14,1045,-3204,-800,20520,481,-366,65,52,45
48.16,1046,-3260,-680,20424,459,-344,83,52,45
48.18,1044,-3232,-732,20528,393,-390,-6,52,45
48.20,1043,-3264,-840,20332,393,-393,0,52,45
48.22,1040,-3156,-976,20372,376,-403,4,52,45
48.24,1041,-3348,-868,20404,481,-414,42,52,45
48.26,1046,-3220,-824,20464,515,-491,52,52,45
48.28,1041,-3192,-744,20484,502,-479,16,52,45
48.30,1041,-3212,-776,20512,457,-463,43,52,45
48.32,1030,-3212,-656,20560,370,-392,22,52,45
48.34,1042,-3164,-800,20480,331,-368,-22,52,45
48.36,1050,-3228,-796,20388,409,-420,13,52,45
48.38,1034,-3268,-808,20492,415,-490,7,52,45
48.40,1043,-3204,-832,20372,430,-519,28,52,45
48.42,1039,-3208,-708,20312,450,-481,-7,52,45
48.44,1028,-3228,-892,20532,414,-381,22,52,45
48.46,1034,-3132,-788,20528,405,-329,61,52,45
48.48,1047,-3176,-880,20528,405,-361,39,52,45
48.50,1032,-3284,-904,20372,466,-382,36,52,45
48.52,1039,-3296,-712,20428,460,-360,40,52,45
48.54,1048,-3144,-804,20524,452,-362,70,52,45
48.56,1035,-3200,-852,20476,441,-307,73,52,45
48.58,1032,-3212,-860,20440,432,-286,51,52,45
48.60,1032,-3160,-780,20492,411,-304,82,52,45
48.62,1035,-3324,-856,20504,429,-346,44,52,45
48.64,1046,-3256,-772,20472,448,-376,22,52,45
48.66,1026,-3304,-920,20440,419,-453,9,52,45
48.68,1039,-3244,-800,20440,444,-482,9,52,45
48.70,1042,-3128,-840,20524,460,-444,13,52,45
48.72,1037,-3224,-788,20412,448,-440,9,52,45
48.74,1042,-3152,-792,20480,438,-442,5,52,45
48.76,1044,-3172,-660,20480,382,-400,16,52,45
48.78,1046,-3344,-952,20484,414,-412,13,52,45
48.80,1042,-3148,-880,20436,446,-444,36,52,45
48.82,1035,-3312,-652,20468,470,-468,41,52,45
48.84,1044,-3196,-796,20404,406,-444,86,52,45
48.86,1035,-3272,-832,20284,365,-404,-30,52,45
48.88,1053,-3248,-908,20484,379,-409,9,52,45
48.90,1041,-3268,-948,20328,438,-378,44,52,45
48.92,1034,-3388,-828,20408,498,-390,93,52,45
48.94,1036,-3404,-736,20376,514,-477,34,52,45
48.96,1038,-3356,-800,20360,509,-513,31,52,45
48.98,1051,-3192,-772,20588,430,-446,8,52,45
49.00,1048,-3152,-816,20476,409,-366,17,52,45
49.02,1028,-3236,-780,20324,411,-369,14,52,45
49.04,1028,-3236,-832,20456,423,-409,36,52,45
49.06,1044,-3236,-848,20440,451,-432,52,52,45
49.08,1048,-3188,-868,20336,460,-453,22,52,45
49.10,1043,-3220,-812,20396,425,-409,19,52,45
49.12,1049,-3244,-808,20540,429,-382,82,52,45
49.14,1032,-3296,-948,20440,452,-369,69,52,45
49.16,1036,-3232,-844,20508,452,-399,82,52,45
49.18,1046,-3288,-836,20432,467,-435,46,52,45
49.20,1041,-3192,-836,20352,441,-425,48,52,45
49.22,1042,-3196,-840,20468,454,-392,33,52,45
49.24,1034,-3220,-760,20480,409,-432,35,52,45
49.26,1030,-3380,-840,20572,414,-409,0,52,45
49.28,1036,-3224,-848,20496,430,-402,15,52,45
49.30,1042,-3312,-808,20328,409,-398,31,52,45
49.32,1042,-3292,-832,20444,414,-428,8,52,45
49.34,1030,-3308,-860,20444,423,-505,19,52,45
49.36,1031,-3152,-848,20396,418,-498,42,52,45
49.38,1037,-3276,-808,20352,460,-475,3,52,45
49.40,1048,-3316,-868,20536,471,-451,61,52,45
49.42,1048,-3280,-776,20468,404,-390,14,52,45
49.44,1042,-3244,-852,20412,404,-457,-20,52,45
49.46,1030,-3196,-920,20456,439,-463,21,52,45
49.48,1037,-3268,-892,20504,525,-460,35,52,45
49.50,1042,-3192,-620,20520,441,-431,21,52,45
49.52,1038,-3260,-620,20556,371,-378,33,52,45
49.54,1029,-3188,-852,20324,337,-367,-20,52,45
49.56,1044,-3240,-952,20364,410,-370,15,52,45
49.58,1036,-3264,-892,20472,516,-403,79,52,45
49.60,1050,-3412,-772,20344,531,-435,42,52,45
49.62,1044,-3276,-708,20508,490,-457,18,52,45
49.64,1037,-3144,-804,20428,441,-454,-3,52,45
49.66,1031,-3204,-864,20380,377,-400,16,52,45
49.68,1038,-3260,-868,20460,389,-349,57,52,45
49.70,1036,-3260,-820,20408,407,-383,36,52,45
49.72,1052,-3404,-800,20412,423,-454,6,52,45
49.74,1044,-3312,-904,20480,433,-493,-8,52,45
49.76,1039,-3260,-764,20484,425,-469,12,52,45
49.78,1046,-3172,-800,20404,435,-408,64,52,45
49.80,1029,-3224,-912,20384,454,-376,50,52,45
49.82,1032,-3256,-796,20604,470,-369,51,52,45
49.84,1036,-3304,-796,20320,467,-398,62,52,45
49.86,1046,-3272,-792,20356,460,-431,17,52,45
49.88,1028,-3156,-812,20448,473,-451,-28,52,45
49.90,1035,-3312,-892,20436,432,-449,15,52,45
49.92,1043,-3160,-756,20468,436,-392,25,52,45
49.94,1031,-3268,-772,20568,445,-342,58,52,45
49.96,1030,-3296,-752,20384,405,-336,41,52,45
49.98,1044,-3132,-864,20376,422,-379,61,52,45
50.00,1044,-3188,-816,20540,427,-419,69,52,45
50.02,1028,-3252,-876,20496,413,-456,29,52,45
50.04,1032,-3364,-788,20408,431,-487,13,52,45
50.06,1034,-3188,-864,20392,473,-474,21,52,45
50.08,1032,-3396,-812,20392,424,-412,46,52,45
50.10,1034,-3320,-836,20440,401,-401,57,52,45
50.12,1043,-3292,-896,20304,444,-404,50,52,45
50.14,1031,-3256,-880,20400,509,-440,65,52,45
50.16,1034,-3280,-628,20424,498,-418,46,52,45
50.18,1044,-3272,-756,20376,386,-376,-17,52,45
50.20,1030,-3276,-844,20472,369,-372,-9,52,45
50.22,1033,-3196,-932,20480,413,-330,72,52,45
50.24,1036,-3260,-864,20336,494,-296,80,52,45
50.26,1038,-3380,-824,20412,519,-310,111,52,45
50.28,1030,-3428,-652,20444,499,-368,38,52,45
50.30,1036,-3232,-664,20428,434,-402,36,52,45
50.32,1028,-3212,-724,20428,383,-338,-15,52,45
50.34,1028,-3248,-1008,20288,392,-316,30,52,45
50.36,1033,-3364,-804,20520,404,-321,68,52,45
50.38,1039,-3328,-988,20404,410,-371,-15,52,45
50.40,1036,-3460,-832,20472,440,-511,5,52,45
50.42,1033,-3180,-808,20464,468,-470,28,52,45
50.44,1047,-3156,-852,20388,449,-393,42,52,45
50.46,1046,-3240,-840,20396,448,-309,48,52,45
50.48,1028,-3300,-848,20472,456,-309,34,52,45
50.50,1032,-3420,-856,20460,462,-327,24,52,45
50.52,1049,-3440,-836,20500,494,-363,11,52,45
50.54,1030,-3300,-748,20404,484,-374,38,52,45
50.56,1036,-3280,-732,20364,461,-360,17,52,45
50.58,1031,-3424,-772,20444,434,-388,53,52,45
50.60,1035,-3328,-768,20460,440,-404,31,52,45
50.62,1031,-3216,-720,20496,451,-413,17,52,45
50.64,1044,-3324,-760,20520,443,-412,46,52,45
50.66,1026,-3360,-804,20520,399,-434,18,52,45
50.68,1036,-3404,-756,20436,406,-472,41,52,45
50.70,1042,-3260,-784,20488,407,-452,2,52,45
50.72,1035,-3336,-880,20368,396,-426,-35,52,45
50.74,1042,-3208,-924,20268,448,-461,32,52,45
50.76,1041,-3296,-792,20412,498,-438,10,52,45
50.78,1033,-3340,-608,20328,428,-427,33,52,45
50.80,1028,-3320,-732,20504,364,-439,-23,59,53
50.82,1031,-3284,-800,20584,374,-438,0,59,53
50.84,1032,-3184,-852,20392,435,-390,22,59,53
50.86,1043,-3300,-864,20376,448,-346,88,59,53
50.88,1036,-3436,-836,20352,480,-420,56,59,53
50.90,1043,-3476,-752,20360,479,-492,3,59,53
50.92,1045,-3300,-796,20448,432,-493,-64,59,53
50.94,1033,-3324,-780,20404,402,-461,28,59,53
50.96,1038,-3276,-784,20396,461,-440,61,59,53
50.98,1051,-3236,-692,20476,422,-370,46,59,53
51.00,1027,-3260,-784,20416,387,-416,-27,59,53
51.02,1034,-3348,-904,20396,461,-426,-11,59,53
51.04,1042,-3280,-820,20480,459,-403,52,59,53
51.06,1041,-3288,-784,20464,448,-364,59,59,53
51.08,1043,-3280,-812,20416,440,-382,54,59,53
51.10,1038,-3344,-740,20572,475,-412,56,59,53
51.12,1036,-3300,-848,20336,465,-413,7,59,53
51.14,1037,-3280,-836,20468,459,-364,19,59,53
51.16,1051,-3284,-760,20556,434,-391,54,59,53
51.18,1031,-3372,-888,20472,448,-400,26,59,53
51.20,1036,-3308,-896,20352,449,-410,29,59,53
51.22,1028,-3340,-788,20412,461,-380,30,59,53
51.24,1038,-3416,-752,20360,439,-391,21,59,53
51.26,1038,-3360,-760,20320,445,-394,23,59,53
51.28,1034,-3352,-832,20428,467,-467,47,59,53
51.30,1028,-3324,-768,20400,439,-433,51,59,53
51.32,1050,-3360,-748,20592,385,-392,9,59,53
51.34,1027,-3336,-928,20560,428,-414,15,59,53
51.36,1027,-3404,-888,20408,470,-415,46,59,53
51.38,1039,-3364,-668,20476,485,-377,67,59,53
51.40,1038,-3484,-716,20428,379,-394,38,59,53
51.42,1032,-3356,-808,20400,395,-411,1,59,53
51.44,1035,-3196,-968,20424,430,-423,45,59,53
51.46,1043,-3372,-852,20420,476,-380,76,59,53
51.48,1033,-3472,-732,20388,515,-374,97,59,53
51.50,1025,-3464,-636,20476,483,-469,44,59,53
51.52,1033,-3380,-660,20384,400,-457,-42,59,53
51.54,1032,-3336,-796,20256,350,-441,-18,59,53
51.56,1046,-3312,-940,20456,403,-428,24,59,53
51.58,1033,-3368,-880,20200,454,-401,58,59,53
51.60,1048,-3416,-800,20452,435,-452,60,59,53
51.62,1047,-3272,-724,20528,402,-431,70,59,53
51.64,1032,-3324,-760,20236,354,-400,32,59,53
51.66,1041,-3320,-756,20428,349,-408,-12,59,53
51.68,1042,-3296,-880,20444,452,-403,25,59,53
51.70,1044,-3312,-820,20424,517,-371,47,59,53
51.72,1035,-3376,-724,20524,525,-409,53,59,53
51.74,1033,-3432,-740,20524,505,-414,23,59,53
51.76,1038,-3328,-740,20420,455,-422,14,59,53
51.78,1036,-3384,-792,20420,422,-372,23,59,53
51.80,1045,-3416,-912,20444,436,-342,32,59,53
51.82,1050,-3308,-792,20484,458,-330,59,59,53
51.84,1050,-3372,-824,20408,458,-351,73,59,53
51.86,1040,-3400,-764,20488,453,-349,83,59,53
51.88,1049,-3424,-676,20464,423,-371,58,59,53
51.90,1035,-3352,-776,20340,374,-399,29,59,53
51.92,1039,-3428,-780,20332,406,-381,51,59,53
51.94,1050,-3264,-828,20340,460,-366,51,59,53
51.96,1035,-3440,-792,20424,501,-394,68,59,53
51.98,1054,-3404,-672,20392,493,-418,48,59,53
52.00,1049,-3424,-736,20624,399,-397,11,59,53
52.02,1045,-3324,-776,20468,409,-405,55,59,53
52.04,1042,-3348,-852,20480,432,-352,45,59,53
52.06,1044,-3508,-804,20360,469,-347,96,59,53
52.08,1044,-3536,-784,20416,468,-389,69,59,53
52.10,1060,-3512,-696,20456,442,-484,17,59,53
52.12,1040,-3380,-720,20564,396,-531,11,59,53
52.14,1055,-3300,-768,20500,371,-447,-1,59,53
52.16,1044,-3308,-840,20404,383,-341,45,59,53
52.18,1054,-3484,-744,20368,410,-361,54,59,53
52.20,1055,-3384,-788,20340,370,-406,48,59,53
52.22,1044,-3468,-816,20324,364,-470,10,59,53
52.24,1058,-3384,-912,20480,435,-468,22,59,53
52.26,1052,-3336,-800,20368,406,-413,10,59,53
52.28,1072,-3452,-856,20480,420,-448,63,59,53
52.30,1054,-3456,-864,20388,442,-457,20,59,53
52.32,1058,-3488,-752,20492,452,-460,52,59,53
52.34,1044,-3364,-852,20340,400,-396,44,59,53
52.36,1052,-3384,-784,20356,433,-396,20,59,53
52.38,1057,-3332,-792,20396,473,-412,42,59,53
