Time,GRS,Ax,Ay,Az,Gx,Gy,Gz,HR,SPO2
0.00,1031,-3756,-2852,19976,376,-452,79,71,66
0.02,1014,-3884,-2960,19916,399,-378,94,71,66
0.04,1033,-3956,-2836,19996,411,-325,51,71,66
0.06,1012,-3920,-2880,19972,451,-389,47,71,66
0.08,1025,-3908,-2852,19876,446,-391,38,71,66
0.10,1012,-3872,-2872,19924,432,-393,24,71,66
0.12,1021,-3964,-2876,20012,467,-408,44,71,66
0.14,1008,-3876,-2896,20008,454,-363,59,71,66
0.16,1028,-4024,-2868,19884,423,-393,36,71,66
0.18,1012,-3964,-2840,19964,391,-504,-21,71,66
0.20,1009,-3988,-2832,20020,448,-522,-13,71,66
0.22,1008,-3836,-2808,19964,392,-462,29,71,66
0.24,1006,-3764,-2840,20024,395,-418,85,71,66
0.26,1006,-3824,-2860,19976,382,-388,57,71,66
0.28,1028,-3964,-2944,20044,408,-411,69,71,66
0.30,1012,-3960,-2860,20068,422,-441,23,71,66
0.32,1018,-4028,-2752,20008,427,-477,25,71,66
0.34,1007,-3848,-2876,19976,408,-464,-4,71,66
0.36,1009,-3832,-2900,19940,427,-418,70,71,66
0.38,1015,-3768,-2884,19988,414,-353,74,71,66
0.40,1008,-3984,-2996,19920,423,-412,19,71,66
0.42,1018,-3964,-2804,19880,432,-452,22,71,66
0.44,1003,-3960,-2864,19916,445,-509,9,71,66
0.46,1008,-3824,-2928,19976,423,-502,7,71,66
0.48,1003,-3880,-2888,20080,423,-393,24,71,66
0.50,1015,-3980,-2908,20056,408,-396,18,71,66
0.52,1006,-3908,-2884,19908,433,-483,4,71,66
0.54,1022,-4052,-2812,19892,389,-621,-26,71,66
0.56,998,-4164,-2868,19952,358,-742,-113,71,66
0.58,1007,-3724,-2868,19948,416,-763,-109,71,66
0.60,999,-3396,-2960,19976,398,-669,-21,71,66
0.62,1011,-3568,-2820,20020,415,-364,47,71,66
0.64,1028,-3760,-2944,19980,393,-294,76,71,66
0.66,1014,-3948,-2916,19860,409,-302,99,71,66
0.68,1045,-4008,-2964,19996,425,-395,25,71,66
0.70,1041,-4008,-2784,19912,453,-501,-11,71,66
0.72,1030,-3920,-2920,20160,429,-483,-4,71,66
0.74,1012,-3704,-2864,20040,436,-489,28,71,66
0.76,1012,-3852,-2828,19956,391,-419,47,71,66
0.78,1016,-3988,-2944,19888,373,-430,7,71,66
0.80,1023,-4092,-2916,19980,426,-518,-34,71,66
0.82,1023,-3708,-2908,19892,440,-556,-23,71,66
0.84,1007,-3692,-2860,20104,383,-429,50,71,66
0.86,1023,-3712,-2812,20016,397,-411,34,71,66
0.88,1029,-3924,-2916,19924,401,-364,45,71,66
0.90,1012,-3932,-2988,19876,425,-401,3,71,66
0.92,1013,-3916,-2828,20108,428,-506,-2,71,66
0.94,1016,-3820,-2780,20028,384,-562,-15,71,66
0.96,1000,-3668,-2856,19900,372,-489,15,71,66
0.98,1014,-3772,-2924,19876,414,-423,51,71,66
1.00,1022,-3980,-2976,19944,409,-423,17,71,66
1.02,1013,-4080,-2988,19968,416,-494,0,71,66
1.04,1002,-3864,-2916,19968,417,-546,13,71,66
1.06,1012,-3684,-2824,19944,433,-521,16,71,66
1.08,1010,-3800,-2908,19936,393,-430,66,71,66
1.10,1016,-3836,-2800,20040,426,-343,54,71,66
1.12,996,-3884,-2888,20032,434,-381,55,71,66
1.14,1024,-3880,-2920,19948,443,-399,22,71,66
1.16,998,-3888,-2920,19992,436,-447,25,71,66
1.18,1000,-3788,-2716,20024,437,-489,-7,71,66
1.20,1002,-3696,-2868,20068,426,-426,54,71,66
1.22,1020,-3892,-2912,19972,412,-409,58,71,66
1.24,1007,-3800,-2912,19984,426,-369,50,71,66
1.26,1002,-3980,-2952,19984,434,-392,33,71,66
1.28,1001,-3824,-3004,20020,438,-410,28,59,71
1.30,1031,-3844,-2736,20056,403,-428,61,59,71
1.32,1016,-3876,-2920,20048,408,-419,35,59,71
1.34,996,-3748,-2880,19864,398,-341,73,59,71
1.36,1001,-3976,-2828,20072,391,-354,59,59,71
1.38,1000,-3932,-2856,19956,407,-446,40,59,71
1.40,1001,-4068,-2804,19932,409,-523,-33,59,71
1.42,1007,-3756,-2904,19920,444,-595,-27,59,71
1.44,1014,-3688,-2716,20016,423,-452,27,59,71
1.46,1010,-3756,-3088,20088,379,-344,61,59,71
1.48,1020,-3900,-3040,20104,445,-301,101,59,71
1.50,1012,-3928,-2828,19856,410,-294,66,59,71
1.52,1013,-3996,-2824,19984,404,-406,47,59,71
1.54,1015,-3796,-2824,19924,426,-468,54,59,71
1.56,1025,-3744,-2864,19996,400,-392,82,59,71
1.58,1009,-3764,-2832,20012,421,-305,93,59,71
1.60,1024,-3916,-2880,20028,417,-365,63,59,71
1.62,1000,-3912,-2888,20060,436,-419,39,59,71
1.64,1010,-3844,-2928,19968,431,-430,31,59,71
1.66,1012,-3776,-2828,19824,437,-447,46,59,71
1.68,1008,-3712,-2904,20052,414,-346,62,59,71
1.70,1000,-3996,-2852,19992,393,-325,91,59,71
1.72,1010,-3884,-2928,19920,436,-353,71,59,71
1.74,1015,-3944,-2796,19956,432,-405,42,59,71
1.76,1027,-3812,-2828,20068,440,-483,39,59,71
1.78,1020,-3812,-2816,20084,390,-443,64,59,71
1.80,1005,-3900,-2892,20048,406,-373,59,59,71
1.82,1006,-3896,-2768,19972,397,-359,86,59,71
1.84,1016,-3936,-2916,19920,404,-406,46,59,71
1.86,1032,-3996,-2916,20152,425,-504,76,59,71
1.88,1024,-3884,-2960,20120,426,-499,19,59,71
1.90,1023,-3900,-2904,20016,357,-327,78,59,71
1.92,1025,-3888,-2984,19900,413,-441,61,59,71
1.94,1011,-3924,-2884,19908,436,-458,40,59,71
1.96,1025,-3916,-2968,19832,412,-477,-9,59,71
1.98,1022,-3824,-2876,19952,438,-509,8,59,71
2.00,1024,-3836,-2924,19848,443,-429,28,59,71
2.02,1008,-3836,-2936,19944,411,-395,68,59,71
2.04,1019,-3932,-2896,20052,423,-426,45,59,71
2.06,1030,-4108,-2860,19992,401,-471,6,59,71
2.08,996,-3868,-2944,19980,431,-493,32,59,71
2.10,1041,-3788,-2804,20008,420,-397,60,59,71
2.12,999,-3864,-2912,20120,406,-363,69,59,71
2.14,1042,-3992,-2864,20008,405,-369,42,59,71
2.16,1016,-4052,-2980,20016,427,-401,34,59,71
2.18,1015,-3892,-2776,19864,420,-411,-5,59,71
2.20,1021,-3848,-2904,20176,425,-462,17,59,71
2.22,1016,-3776,-2780,19960,423,-416,36,59,71
2.24,992,-3972,-2968,19908,412,-397,60,59,71
2.26,1019,-3980,-2960,20088,404,-435,49,59,71
2.28,1028,-3944,-2896,19944,414,-381,43,59,71
2.30,1017,-3868,-2924,20000,452,-451,52,59,71
2.32,1003,-3964,-2836,20100,399,-376,13,59,71
2.34,1021,-3948,-2984,19996,424,-496,50,59,71
2.36,1012,-3940,-2760,20008,451,-435,4,59,71
2.38,1012,-3932,-3032,19840,412,-484,-17,59,71
2.40,1016,-3884,-2816,20044,443,-325,33,59,71
2.42,1019,-3876,-2932,19972,445,-381,28,59,71
2.44,1015,-3936,-2768,19956,425,-441,44,59,71
2.46,1006,-3928,-2928,19984,386,-465,9,59,71
2.48,1003,-3908,-2848,19964,422,-512,-1,59,71
2.50,1024,-3868,-2944,19888,409,-473,29,59,71
2.52,1025,-3808,-2860,19928,405,-412,39,59,71
2.54,1025,-3988,-2960,20080,406,-437,35,59,71
2.56,1016,-3968,-2936,20008,397,-505,20,59,71
2.58,1024,-3876,-2920,19976,367,-524,-15,59,71
2.60,1014,-3908,-2860,19908,390,-590,-15,59,71
2.62,1017,-3836,-2996,19912,409,-560,-23,59,71
2.64,1009,-3784,-2888,20048,442,-513,28,59,71
2.66,1013,-3752,-2824,20012,384,-450,24,59,71
2.68,1013,-3760,-2908,19952,394,-469,44,59,71
2.70,1004,-3932,-2940,20132,412,-469,20,59,71
2.72,1024,-3940,-2824,19900,428,-520,46,59,71
2.74,1034,-3776,-2856,19936,398,-464,32,59,71
2.76,1002,-3912,-2908,20088,363,-413,41,59,71
2.78,1012,-3896,-3020,19948,397,-362,51,59,71
2.80,1017,-3944,-2900,19876,400,-416,49,59,71
2.82,1025,-3908,-2904,20000,421,-436,22,59,71
2.84,1014,-3848,-2888,19840,455,-441,15,59,71
2.86,1013,-3860,-2900,20096,425,-455,-4,59,71
2.88,1021,-3868,-2948,19836,412,-448,-4,59,71
2.90,1020,-3976,-2788,20060,409,-431,15,59,71
2.92,1010,-3936,-2828,19944,451,-506,3,59,71
2.94,1009,-3956,-2820,20040,380,-541,-5,59,71
2.96,1029,-3824,-2912,19956,380,-463,-21,59,71
2.98,1024,-3896,-2932,19908,412,-530,-31,59,71
3.00,1008,-3812,-2824,20020,406,-430,52,59,71
3.02,1014,-3852,-3044,19940,429,-390,32,59,71
3.04,1024,-3884,-2912,19972,432,-412,-11,59,71
3.06,1022,-3840,-2908,19964,430,-508,0,59,71
3.08,1012,-3808,-2900,19916,397,-505,-6,59,71
3.10,1010,-3740,-2916,19884,399,-437,35,59,71
3.12,1024,-3884,-2944,20072,425,-389,56,59,71
3.14,1009,-3836,-2972,19964,437,-413,68,59,71
3.16,1010,-4016,-2760,19944,401,-435,43,59,71
3.18,1031,-3796,-2840,19832,436,-467,41,59,71
3.20,1011,-3892,-2932,19964,429,-459,54,59,71
3.22,1028,-3888,-2932,20012,418,-459,24,59,71
3.24,1010,-3952,-2856,19844,431,-408,54,59,71
3.26,1010,-3860,-2936,19952,448,-360,50,59,71
3.28,1021,-3868,-2904,20060,467,-344,49,59,71
3.30,1010,-3904,-2936,19940,445,-298,115,59,71
3.32,1012,-3812,-2808,19864,457,-251,133,59,71
3.34,1012,-3924,-2728,19940,437,-206,151,59,71
3.36,1028,-3884,-2836,19888,445,-234,144,59,71
3.38,1025,-4028,-2832,20028,412,-280,99,59,71
3.40,1015,-4028,-2896,20124,429,-411,41,59,71
3.42,1024,-3852,-2820,19920,431,-425,-27,59,71
3.44,1020,-3884,-2888,19948,435,-479,-30,59,71
3.46,1024,-3952,-2964,20080,434,-406,-52,59,71
3.48,1022,-4148,-2964,19980,425,-450,-15,59,71
3.50,1016,-3932,-2824,19920,465,-541,-3,59,71
3.52,1025,-4156,-2656,19968,372,-640,-96,59,71
3.54,1010,-3824,-2916,19876,395,-650,-57,59,71
3.56,1009,-3700,-2896,19832,390,-590,10,59,71
3.58,1027,-3476,-2852,19988,382,-504,64,59,71
3.60,1014,-3556,-2984,20020,403,-344,151,59,71
3.62,1031,-3860,-2880,19984,355,-217,150,59,71
3.64,1018,-3900,-2964,19820,394,-327,165,59,71
3.66,1023,-3968,-2832,19944,411,-352,118,59,71
3.68,1015,-3988,-2968,19884,419,-331,85,59,71
3.70,1006,-3724,-2908,20196,449,-382,58,59,71
3.72,1020,-3744,-2888,20120,458,-289,33,59,71
3.74,1032,-3896,-2788,19984,454,-269,23,59,71
3.76,1022,-3936,-2928,19892,481,-295,44,59,71
3.78,1009,-3968,-2868,20056,433,-286,58,59,71
3.80,990,-4060,-2804,19944,411,-342,14,59,71
3.82,1007,-4008,-2920,20028,435,-368,74,59,71
3.84,1023,-3904,-2912,19924,412,-369,82,59,71
3.86,997,-4008,-2876,19992,427,-358,93,59,71
3.88,1014,-3980,-2860,20100,383,-370,63,59,71
3.90,1017,-4040,-2904,19888,405,-425,26,59,71
3.92,1019,-3884,-2844,19804,412,-438,-2,59,71
3.94,1007,-3860,-2876,19884,442,-391,44,59,71
3.96,1005,-3828,-2880,19892,447,-384,42,59,71
3.98,1002,-4044,-2848,20048,423,-411,28,59,71
4.00,1020,-3992,-2912,19956,450,-500,0,59,71
4.02,1010,-4004,-2812,19904,414,-558,-39,59,71
4.04,1009,-4380,-2580,20060,373,-708,-101,59,71
4.06,1023,-4100,-2928,19800,412,-764,-156,59,71
4.08,1005,-3652,-2952,20100,440,-694,-58,59,71
4.10,1006,-3516,-2928,20200,431,-580,-11,59,71
4.12,1011,-3768,-2780,20016,371,-333,62,59,71
4.14,1008,-4092,-2864,19924,347,-343,49,59,71
4.16,1012,-4000,-2800,19724,412,-566,29,59,71
4.18,1028,-3832,-2796,20044,400,-494,71,59,71
4.20,1018,-3892,-2812,19964,378,-444,81,59,71
4.22,1034,-3912,-2868,19980,394,-470,69,59,71
4.24,1018,-3908,-2912,20088,369,-456,76,59,71
4.26,1028,-4024,-2904,19952,384,-510,0,59,71
4.28,1002,-3816,-2904,19936,441,-604,-6,50,65
4.30,1009,-3720,-2888,20076,404,-491,45,50,65
4.32,1012,-3928,-2832,20076,369,-449,34,50,65
4.34,1020,-3892,-2888,19936,404,-463,4,50,65
4.36,1018,-3960,-2968,19864,436,-435,5,50,65
4.38,1024,-3892,-2940,20084,450,-430,-13,50,65
4.40,1018,-3852,-2720,20092,408,-396,60,50,65
4.42,1018,-3992,-2884,19936,367,-404,68,50,65
4.44,1019,-3884,-2892,19904,389,-438,32,50,65
4.46,1010,-3900,-2900,20068,431,-476,44,50,65
4.48,1020,-3856,-2844,20052,410,-455,38,50,65
4.50,1009,-3956,-2760,19968,404,-477,55,50,65
4.52,1010,-3964,-2952,19952,415,-515,29,50,65
4.54,1004,-3788,-2936,20140,412,-511,6,50,65
4.56,1017,-3820,-2852,20048,416,-474,8,50,65
4.58,1025,-3924,-2868,19960,408,-491,-2,50,65
4.60,1019,-3936,-2872,19864,424,-487,31,50,65
4.62,1022,-3748,-2844,19900,422,-478,29,50,65
4.64,1008,-3956,-2908,20008,416,-484,25,50,65
4.66,1023,-3952,-2944,20124,396,-504,-5,50,65
4.68,996,-3864,-2972,19888,418,-560,-14,50,65
4.70,1020,-3728,-2816,19900,423,-510,34,50,65
4.72,1021,-3888,-2824,19960,414,-385,55,50,65
4.74,1024,-3828,-2920,19964,411,-308,61,50,65
4.76,997,-3812,-2984,19940,440,-338,89,50,65
4.78,1016,-4004,-2916,19948,457,-400,38,50,65
4.80,1016,-3912,-2844,19948,432,-461,-14,50,65
4.82,1007,-3908,-2788,19908,435,-509,14,50,65
4.84,1008,-3724,-2944,19928,420,-512,42,50,65
4.86,1030,-3876,-2916,19956,401,-443,43,50,65
4.88,1009,-4016,-2832,20052,420,-477,25,50,65
4.90,1023,-3944,-2936,19944,419,-517,26,50,65
4.92,1008,-3796,-2860,19904,409,-520,9,50,65
4.94,1004,-3848,-2840,20028,391,-548,43,50,65
4.96,1012,-3684,-3020,20000,398,-473,47,50,65
4.98,1014,-3740,-2912,20064,422,-419,77,50,65
5.00,1000,-3832,-2880,20024,414,-433,71,50,65
5.02,1029,-3920,-2836,19884,399,-389,77,50,65
5.04,1009,-3996,-2924,19924,428,-494,21,50,65
5.06,1022,-3860,-2840,19928,414,-489,26,50,65
5.08,1008,-3752,-2976,20076,380,-490,17,50,65
5.10,1033,-3860,-2848,19844,391,-463,49,50,65
5.12,1019,-3888,-2992,20060,390,-494,20,50,65
5.14,1007,-3824,-2872,20008,396,-447,-18,50,65
5.16,1012,-3840,-2992,19968,382,-526,29,50,65
5.18,1021,-3804,-2892,20004,421,-432,33,50,65
5.20,1031,-3904,-2940,19940,412,-478,23,50,65
5.22,1015,-3868,-2816,20020,412,-488,3,50,65
5.24,1017,-3876,-2824,19992,407,-522,-22,50,65
5.26,1009,-3784,-2900,19976,380,-539,2,50,65
5.28,1011,-3852,-2924,20020,411,-526,-42,50,65
5.30,1014,-4020,-3008,20072,391,-630,-4,50,65
5.32,1010,-3768,-2784,19868,389,-577,-49,50,65
5.34,1012,-3712,-2852,19960,340,-502,-24,50,65
5.36,1003,-3836,-3016,19944,371,-471,13,50,65
5.38,1017,-3716,-2944,20028,385,-458,13,50,65
5.40,1009,-3856,-2880,20024,402,-453,16,50,65
5.42,1030,-3876,-2904,19988,410,-523,18,50,65
5.44,1010,-3736,-2880,20140,406,-511,37,50,65
5.46,1017,-3720,-2908,20024,425,-459,48,50,65
5.48,1018,-3708,-2968,19980,379,-378,91,50,65
5.50,1021,-3964,-3012,19896,417,-421,60,50,65
5.52,1019,-3816,-3060,19972,431,-435,30,50,65
5.54,1025,-3792,-2912,19948,435,-359,37,50,65
5.56,1025,-3824,-2860,20088,468,-332,25,50,65
5.58,1036,-3784,-2924,20152,472,-345,20,50,65
5.60,1015,-3832,-3000,19984,465,-293,43,50,65
5.62,1022,-3884,-2952,20020,474,-291,12,50,65
5.64,1020,-4000,-2856,20024,495,-333,-4,50,65
5.66,1014,-3892,-2808,20136,459,-382,-33,50,65
5.68,1015,-3728,-3092,19892,511,-463,-3,50,65
5.70,1020,-3696,-3040,20024,463,-293,-11,50,65
5.72,1008,-3916,-2936,20000,446,-302,78,50,65
5.74,1031,-3924,-2812,19896,479,-333,31,50,65
5.76,1007,-3968,-2868,19944,426,-377,19,50,65
5.78,1014,-3788,-2844,20052,502,-362,41,50,65
5.80,1010,-3744,-3012,20144,459,-319,76,50,65
5.82,1021,-3900,-2852,20052,443,-189,108,50,65
5.84,1019,-3872,-2904,20156,434,-261,151,50,65
5.86,1010,-3868,-2828,19940,393,-327,164,50,65
5.88,1005,-3880,-2880,19972,410,-270,116,50,65
5.90,1006,-3964,-2964,19964,411,-311,122,50,65
5.92,1024,-3868,-2796,20096,483,-321,111,50,65
5.94,1009,-3808,-2816,20048,395,-195,169,50,65
5.96,1021,-4040,-2852,20072,486,-184,152,50,65
5.98,1008,-3952,-2952,20028,420,-308,161,50,65
6.00,1010,-4100,-2884,20028,403,-295,133,50,65
6.02,1006,-4008,-2984,19880,427,-400,9,50,65
6.04,1008,-3872,-2952,20028,490,-399,28,50,65
6.06,1016,-3960,-2860,20132,443,-389,17,50,65
6.08,1008,-3900,-2780,19984,438,-372,19,50,65
6.10,1026,-4048,-2856,19756,391,-390,-4,50,65
6.12,1022,-3972,-2860,19944,472,-526,-47,50,65
6.14,1017,-3936,-2816,20032,434,-485,-4,50,65
6.16,1022,-3940,-2868,20108,403,-518,12,50,65
6.18,1019,-3976,-2816,19952,402,-555,21,50,65
6.20,1011,-3960,-2844,19872,400,-558,22,50,65
6.22,1022,-3864,-2936,19988,390,-529,22,50,65
6.24,1024,-3860,-2860,20048,435,-479,-10,50,65
6.26,1017,-3884,-2836,20036,451,-427,19,50,65
6.28,1012,-3968,-2848,19880,418,-418,37,50,65
6.30,1024,-3892,-2800,20012,430,-417,35,50,65
6.32,1011,-3952,-2912,19892,423,-422,45,50,65
6.34,1010,-3868,-3016,19936,416,-399,77,50,65
6.36,1001,-3816,-2900,19976,442,-321,56,50,65
6.38,1025,-3848,-2920,19972,445,-343,60,50,65
6.40,1024,-3988,-2852,20008,437,-369,60,50,65
6.42,1014,-3932,-2872,19960,451,-400,26,50,65
6.44,1024,-4420,-2720,20016,400,-556,-62,50,65
6.46,1006,-4060,-2912,19824,447,-548,-123,50,65
6.48,1040,-3644,-3052,20016,461,-453,8,50,65
6.50,1009,-3752,-2716,20140,487,-393,70,50,65
6.52,1013,-3780,-2896,19976,389,-301,121,50,65
6.54,1005,-4232,-2796,19880,377,-273,37,50,65
6.56,1008,-4000,-3012,19856,477,-440,21,50,65
6.58,1006,-4140,-2792,20100,411,-303,71,50,65
6.60,1010,-3960,-2936,19936,428,-386,51,50,65
6.62,1016,-3796,-2764,20032,418,-443,65,50,65
6.64,1022,-3852,-2724,19944,383,-339,61,50,65
6.66,1013,-4056,-2912,19844,420,-388,44,50,65
6.68,1013,-4104,-2860,19932,455,-406,19,50,65
6.70,1022,-3964,-2988,19956,415,-426,1,50,65
6.72,1002,-4108,-2908,20104,432,-471,21,50,65
6.74,1011,-3956,-2928,19928,393,-523,24,50,65
6.76,1017,-3868,-2844,20028,373,-454,43,50,65
6.78,1012,-3844,-2952,19900,385,-455,21,50,65
6.80,1026,-3876,-2968,19964,429,-450,26,50,65
6.82,1028,-3980,-2896,19928,431,-388,-22,50,65
6.84,1020,-3908,-2852,19984,437,-444,22,50,65
6.86,1009,-3804,-2860,19944,439,-451,38,50,65
6.88,1013,-3804,-2896,19852,437,-385,69,50,65
6.90,1020,-4008,-2860,19928,431,-302,60,50,65
6.92,993,-4000,-2892,20012,453,-313,70,50,65
6.94,1019,-3884,-2900,19892,459,-307,97,50,65
6.96,992,-4004,-2812,19948,445,-309,68,50,65
6.98,1009,-4096,-2900,20040,434,-336,100,50,65
7.00,1028,-3892,-2880,19896,467,-206,61,50,65
7.02,1024,-4124,-2928,19832,423,-319,56,50,65
7.04,1024,-4060,-2888,19960,471,-365,66,50,65
7.06,1011,-4160,-2804,20004,415,-417,-3,50,65
7.08,1014,-4556,-2684,19936,390,-782,-110,50,65
7.10,1013,-3720,-3048,19900,382,-848,-101,50,65
7.12,1012,-3820,-2888,20084,391,-674,-5,50,65
7.14,1011,-3708,-2860,20160,394,-605,14,50,65
7.16,1015,-3840,-2740,19764,391,-388,62,50,65
7.18,1013,-4076,-2872,19868,393,-423,74,50,65
7.20,1024,-4020,-2944,19928,426,-424,59,50,65
7.22,1021,-3912,-2876,19968,398,-366,66,50,65
7.24,1019,-4020,-2948,19984,449,-436,67,50,65
7.26,1013,-3832,-2696,19984,389,-412,119,50,59
7.28,1018,-3808,-2964,19908,420,-287,114,50,59
7.30,1021,-4068,-2792,19948,432,-272,83,50,59
7.32,1004,-4128,-2916,19916,430,-329,63,50,59
7.34,1023,-3964,-2848,20080,469,-367,26,50,59
7.36,1018,-3992,-2964,19912,449,-397,12,50,59
7.38,1024,-3972,-2848,19948,450,-386,2,50,59
7.40,1025,-3988,-2880,20028,449,-415,-27,50,59
7.42,1024,-4024,-2828,20024,470,-445,-20,50,59
7.44,1009,-3832,-2792,20196,427,-359,70,50,59
7.46,1006,-3904,-2864,19864,415,-335,94,50,59
7.48,1008,-3892,-2768,19944,418,-264,98,50,59
7.50,1013,-4032,-2772,19884,388,-303,82,50,59
7.52,1022,-4044,-2820,20008,406,-409,50,50,59
7.54,1004,-4060,-2852,20004,393,-447,-6,50,59
7.56,1022,-4056,-2964,19900,403,-527,28,50,59
7.58,1028,-4004,-2844,19948,425,-480,39,50,59
7.60,1014,-4056,-2780,19948,391,-429,57,50,59
7.62,1026,-4060,-2800,19948,405,-437,73,50,59
7.64,1018,-4048,-2800,19864,406,-400,70,50,59
7.66,1025,-3992,-2868,19932,402,-380,83,50,59
7.68,1005,-4080,-2936,20072,409,-465,35,50,59
7.70,1027,-3956,-2952,19880,424,-502,12,50,59
7.72,1005,-4052,-2868,19940,433,-466,-25,50,59
7.74,1021,-3920,-2988,19876,488,-426,4,50,59
7.76,1020,-3988,-2816,20060,482,-302,9,50,59
7.78,1017,-4044,-2792,19972,454,-295,95,50,59
7.80,1016,-4236,-2696,20084,394,-364,75,50,59
7.82,1020,-4124,-2824,19900,385,-499,45,50,59
7.84,1019,-3888,-3096,19868,418,-564,-40,50,59
7.86,1016,-3952,-2964,19924,484,-522,-20,50,59
7.88,1016,-3808,-2856,19956,465,-333,44,50,59
7.90,1029,-4064,-2784,20020,416,-283,126,50,59
7.92,1031,-4132,-2764,19820,376,-348,147,50,59
7.94,1017,-4120,-2928,19928,337,-432,108,50,59
7.96,1021,-3996,-2952,19872,397,-485,55,50,59
7.98,1015,-3980,-2912,19932,429,-560,2,50,59
8.00,1032,-3992,-2816,20140,446,-476,-54,50,59
8.02,1028,-4140,-2844,19940,467,-539,-36,50,59
8.04,1029,-4016,-2712,19932,427,-566,-9,50,59
8.06,1030,-3940,-2824,19940,390,-559,10,50,59
8.08,1023,-3976,-2820,20036,409,-512,6,50,59
8.10,1028,-3912,-2940,19928,448,-399,16,50,59
8.12,1013,-3820,-2852,19992,477,-342,65,50,59
8.14,1024,-4008,-2768,19952,456,-329,84,50,59
8.16,1018,-4116,-2824,20044,435,-318,110,50,59
8.18,1015,-4012,-2844,19884,396,-299,100,50,59
8.20,1037,-3968,-2900,19896,447,-294,80,50,59
8.22,1016,-3936,-2860,19892,441,-296,78,50,59
8.24,1024,-4156,-2888,19896,460,-273,39,50,59
8.26,1025,-4100,-2848,20064,472,-333,25,50,59
8.28,1024,-3920,-2784,19868,483,-222,47,50,59
8.30,1013,-3764,-2752,19912,473,39,110,50,59
8.32,1025,-4200,-2936,19904,385,-275,136,50,59
8.34,1017,-3996,-2748,19872,423,-286,142,50,59
8.36,1030,-4204,-2744,19876,348,-310,117,50,59
8.38,1035,-4144,-2784,20056,460,-439,55,50,59
8.40,1036,-4040,-2788,19856,410,-351,85,50,59
8.42,1023,-4128,-2760,19916,415,-215,140,50,59
8.44,1027,-4128,-2936,19892,389,-231,131,50,59
8.46,1007,-4204,-2884,19880,409,-294,75,50,59
8.48,1029,-4208,-2952,19920,497,-218,33,50,59
8.50,1030,-4276,-2732,19832,401,-410,-8,50,59
8.52,1025,-4144,-2892,19872,453,-479,2,50,59
8.54,1027,-4028,-2844,19836,397,-361,21,50,59
8.56,1014,-4084,-2808,19824,434,-398,27,50,59
8.58,1014,-4164,-2800,19984,466,-392,25,50,59
8.60,1027,-4216,-2808,20044,447,-402,8,50,59
8.62,1010,-4236,-2760,19912,430,-421,-6,50,59
8.64,1023,-4196,-2832,19964,416,-520,-9,50,59
8.66,1028,-3976,-2860,20020,407,-458,27,50,59
8.68,1017,-4164,-2896,19884,416,-397,3,50,59
8.70,1020,-4060,-2896,19948,460,-398,14,50,59
8.72,1028,-4176,-2760,20028,464,-344,24,50,59
8.74,1013,-4236,-2812,19980,431,-395,31,50,59
8.76,1022,-4104,-2796,19976,438,-453,32,50,59
8.78,1029,-4160,-2772,19988,413,-406,32,50,59
8.80,1029,-4116,-2748,19988,404,-398,37,50,59
8.82,1021,-4128,-2828,20016,403,-400,62,50,59
8.84,1030,-4168,-2708,19928,400,-440,49,50,59
8.86,1026,-4232,-2812,20024,391,-523,36,50,59
8.88,1017,-4080,-2784,19812,407,-520,12,50,59
8.90,1020,-4136,-2848,19964,425,-467,28,50,59
8.92,1026,-4044,-2772,19844,426,-367,39,50,59
8.94,1024,-4044,-2784,19936,378,-369,60,50,59
8.96,1019,-4332,-2804,20000,433,-481,55,50,59
8.98,1042,-4240,-2884,19980,405,-556,8,50,59
9.00,1018,-3928,-2816,19860,459,-520,-5,50,59
9.02,1015,-3936,-2792,19944,424,-413,22,50,59
9.04,1015,-4164,-2788,19984,412,-343,50,50,59
9.06,1026,-4188,-2896,19996,381,-362,36,50,59
9.08,1016,-4324,-2892,19816,427,-432,28,50,59
9.10,1018,-4068,-2820,19916,464,-477,-36,50,59
9.12,1036,-4064,-2800,19932,411,-466,-8,50,59
9.14,1025,-4072,-2712,19768,396,-439,10,50,59
9.16,1013,-4140,-2824,19868,410,-377,81,50,59
9.18,1021,-4296,-2964,19788,396,-413,56,50,59
9.20,1021,-4260,-2900,19968,421,-516,19,50,59
9.22,1027,-4100,-2848,19960,410,-524,16,50,59
9.24,1028,-4200,-2852,19908,396,-576,5,50,59
9.26,1014,-4120,-2808,20060,390,-574,13,50,59
9.28,1020,-4104,-2844,19856,354,-508,35,50,59
9.30,1016,-4080,-2812,19696,421,-511,15,50,59
9.32,1030,-4028,-2772,19980,436,-465,21,50,59
9.34,1028,-4104,-2760,19940,397,-455,32,50,59
9.36,1023,-4040,-2868,19948,380,-503,50,50,59
9.38,1021,-4112,-2780,19920,397,-457,38,50,59
9.40,1037,-4032,-2864,20024,400,-485,25,50,59
9.42,1034,-4104,-2852,19912,405,-488,3,50,59
9.44,1032,-4064,-2776,19872,396,-524,-16,50,59
9.46,1031,-4040,-2848,19972,431,-521,-6,50,59
9.48,1021,-4096,-2884,19964,410,-518,13,50,59
9.50,1022,-4052,-2764,19820,406,-486,-22,50,59
9.52,1019,-4120,-2816,19900,413,-489,10,50,59
9.54,1028,-4064,-2824,19844,418,-445,56,50,59
9.56,1024,-4184,-2916,19872,410,-445,20,50,59
9.58,1019,-4084,-2808,20152,402,-498,14,50,59
9.60,1028,-4032,-2832,19908,423,-508,-37,50,59
9.62,1018,-4060,-2824,19884,468,-472,50,50,59
9.64,1014,-3940,-2840,19992,419,-402,35,50,59
9.66,1023,-4016,-2876,20000,392,-388,53,50,59
9.68,1014,-4044,-3012,19908,422,-442,25,50,59
9.70,1020,-4092,-2848,19928,447,-433,-6,50,59
9.72,1044,-3996,-2824,20064,433,-407,15,50,59
9.74,1017,-4028,-2848,19956,446,-366,56,50,59
9.76,1016,-4084,-2880,20056,436,-402,26,50,59
9.78,1020,-4196,-2840,19884,389,-429,15,50,59
9.80,1012,-4088,-2904,19788,444,-502,2,50,59
9.82,1017,-4072,-2800,19880,441,-485,25,50,59
9.84,1016,-4084,-2728,19908,432,-453,24,50,59
9.86,1018,-4172,-2804,19896,415,-497,11,50,59
9.88,1029,-3992,-2804,20020,399,-479,30,50,59
9.90,1019,-4076,-2904,19868,421,-486,12,50,59
9.92,1027,-4008,-2808,19916,430,-427,53,50,59
9.94,1031,-4056,-2816,19836,412,-395,41,50,59
9.96,1024,-4044,-2792,19920,437,-444,61,50,59
9.98,1036,-4040,-2824,19864,398,-426,82,50,59
10.00,1029,-4048,-2844,19932,418,-392,81,50,59
10.02,1024,-4148,-2904,20008,435,-391,29,50,59
10.04,1025,-4164,-2776,20020,426,-445,21,50,59
10.06,1017,-4004,-2800,19952,413,-465,25,50,59
10.08,1027,-4008,-2840,19948,453,-466,53,50,59
10.10,1032,-4024,-2804,20048,410,-415,16,50,59
10.12,1035,-4124,-2820,19980,391,-452,20,50,59
10.14,1025,-4188,-2848,19992,427,-504,0,50,59
10.16,1022,-4004,-2908,19976,425,-444,44,50,59
10.18,1032,-4136,-2896,19936,385,-462,-3,50,59
10.20,1031,-4064,-2752,19892,419,-552,24,50,59
10.22,1025,-4244,-2836,19952,394,-512,-34,50,59
10.24,1015,-3956,-2796,19920,442,-565,-5,50,59
10.26,1021,-3884,-2840,19936,410,-453,17,50,64
10.28,1025,-3976,-2924,19976,383,-353,50,50,64
10.30,1024,-4072,-2916,19884,403,-357,100,50,64
10.32,1025,-4096,-2816,19868,419,-356,69,50,64
10.34,1029,-4172,-2788,20016,418,-371,42,50,64
10.36,1024,-4188,-2820,19876,407,-427,76,50,64
10.38,1014,-4072,-2812,20016,412,-427,28,50,64
10.40,1008,-3996,-2784,20008,423,-414,41,50,64
10.42,1021,-4196,-2864,20044,415,-429,35,50,64
10.44,1022,-4112,-2856,19784,411,-482,19,50,64
10.46,1024,-4116,-2860,19964,408,-486,-26,50,64
10.48,1020,-4108,-2896,19904,422,-514,-15,50,64
10.50,1021,-4032,-2748,19952,449,-492,-1,50,64
10.52,1017,-4016,-2780,19980,430,-425,24,50,64
10.54,1024,-4052,-2876,19928,440,-409,63,50,64
10.56,1016,-4028,-2816,20008,424,-410,57,50,64
10.58,1015,-4124,-2828,20108,401,-452,25,50,64
10.60,1026,-4040,-2748,19912,428,-520,9,50,64
10.62,1018,-3920,-2812,19816,415,-435,6,50,64
10.64,1008,-3956,-2932,20004,407,-424,28,50,64
10.66,1019,-4188,-2688,19816,437,-384,26,50,64
10.68,1025,-3984,-2888,19988,417,-434,24,50,64
10.70,1026,-4060,-2792,19928,431,-446,18,50,64
10.72,1015,-4132,-2744,19932,413,-470,15,50,64
10.74,1024,-4132,-2896,19928,426,-485,-4,50,64
10.76,1028,-4120,-2896,19968,397,-504,-21,50,64
10.78,1010,-4040,-2720,19988,438,-472,14,50,64
10.80,1019,-4120,-2744,19788,389,-450,65,50,64
10.82,1031,-4036,-2812,19920,422,-476,60,50,64
10.84,1032,-4116,-2896,20028,403,-470,37,50,64
10.86,1032,-3976,-2780,19872,422,-460,28,50,64
10.88,1024,-4020,-2748,20064,396,-442,69,50,64
10.90,1029,-3920,-2812,19896,394,-362,58,50,64
10.92,1036,-3988,-2900,19836,418,-368,73,50,64
10.94,1031,-4140,-2892,20016,435,-397,36,50,64
10.96,1024,-4100,-2832,19980,421,-423,10,50,64
10.98,1029,-4092,-2728,19832,413,-505,25,50,64
11.00,1021,-3884,-2844,19976,415,-474,19,50,64
11.02,1017,-3972,-2772,19976,408,-364,41,50,64
11.04,1026,-4112,-2872,19980,405,-418,62,50,64
11.06,1018,-4144,-2936,19952,438,-479,65,50,64
11.08,1014,-4068,-2880,19948,392,-500,2,50,64
11.10,1029,-4088,-2804,19976,428,-554,-21,50,64
11.12,1013,-3848,-2876,19928,425,-468,-3,50,64
11.14,1017,-4020,-2832,19968,421,-429,-5,50,64
11.16,1011,-4112,-2860,19776,427,-381,26,50,64
11.18,1018,-4056,-2736,20036,407,-433,5,50,64
11.20,1026,-4136,-2824,19912,434,-537,-25,50,64
11.22,1022,-3968,-2848,20040,403,-539,3,50,64
11.24,1026,-3976,-2840,20020,426,-481,18,50,64
11.26,1028,-4100,-2864,19892,404,-455,6,50,64
11.28,1016,-4092,-2796,19840,407,-461,22,50,64
11.30,1019,-4076,-2876,19908,413,-518,44,50,64
11.32,1029,-3992,-2908,19992,390,-473,100,50,64
11.34,1014,-3932,-2888,19960,409,-372,115,50,64
11.36,1026,-4092,-2776,19972,384,-327,128,50,64
11.38,1030,-4104,-2828,19920,394,-363,108,50,64
11.40,1015,-3884,-2864,19856,435,-404,60,50,64
11.42,1024,-4028,-2840,20028,412,-431,54,50,64
11.44,1012,-4040,-2844,20064,450,-500,-38,50,64
11.46,1031,-4092,-3048,20028,462,-472,-58,50,64
11.48,1011,-3904,-2744,19836,481,-417,34,50,64
11.50,1021,-4020,-2704,20004,428,-298,51,50,64
11.52,1029,-4108,-2792,20036,407,-303,86,50,64
11.54,1020,-4060,-2920,19960,427,-386,61,50,64
11.56,1030,-4048,-2860,19912,413,-389,31,50,64
11.58,1016,-4076,-2844,19936,447,-436,-21,50,64
11.60,1013,-4012,-2788,19884,451,-403,0,50,64
11.62,1023,-4140,-2852,19896,431,-410,31,50,64
11.64,1027,-4112,-2828,20108,387,-436,51,50,64
11.66,1026,-4256,-2720,19908,353,-515,29,50,64
11.68,1032,-4188,-2852,20036,405,-633,13,50,64
11.70,1033,-3956,-2792,19812,408,-604,-20,50,64
11.72,1023,-4032,-2784,20012,430,-563,14,50,64
11.74,1009,-4012,-2796,20080,395,-503,31,50,64
11.76,992,-4072,-2896,19928,377,-490,68,50,64
11.78,1015,-4116,-2932,19884,394,-446,70,50,64
11.80,1024,-3968,-2796,19908,419,-360,79,50,64
11.82,1009,-3988,-2844,19960,420,-384,69,50,64
11.84,1013,-4068,-2844,19952,426,-389,44,50,64
11.86,1024,-3960,-2784,20028,437,-389,15,50,64
11.88,1011,-4052,-2892,20004,449,-431,-7,50,64
11.90,1010,-4092,-2884,19928,446,-439,-16,50,64
11.92,1023,-4104,-2872,19912,429,-478,-28,50,64
11.94,1030,-4028,-2852,19812,458,-517,-14,50,64
11.96,1028,-3904,-2768,19992,478,-397,-10,50,64
11.98,1024,-4008,-2816,19944,432,-319,45,50,64
12.00,1019,-4212,-2704,20024,415,-386,59,50,64
12.02,1030,-4116,-2800,19876,415,-430,61,50,64
12.04,1008,-4076,-2868,19948,370,-455,44,50,64
12.06,1013,-4140,-2892,19940,435,-555,24,50,64
12.08,1029,-4232,-2940,19980,395,-557,-53,50,64
12.10,1003,-4060,-2928,19744,408,-592,-15,50,64
12.12,1026,-3744,-2668,19856,463,-492,19,50,64
12.14,1014,-3892,-2852,19972,373,-336,101,50,64
12.16,1012,-4120,-2868,19980,378,-333,79,50,64
12.18,1028,-4220,-2768,19836,425,-425,82,50,64
12.20,1020,-4048,-2736,19964,413,-496,29,50,64
12.22,1021,-3992,-2888,19972,416,-430,40,50,64
12.24,1024,-3984,-2852,20128,426,-450,59,50,64
12.26,1005,-4148,-2832,19944,399,-349,148,50,64
12.28,1022,-4148,-2852,19892,366,-349,85,50,64
12.30,1011,-4240,-2960,19964,458,-421,77,50,64
12.32,1019,-4052,-2904,19820,429,-494,5,50,64
12.34,1028,-3952,-2796,20000,449,-527,-24,50,64
12.36,1012,-3796,-2912,19928,442,-479,-35,50,64
12.38,1020,-3952,-2840,19896,423,-354,-20,50,64
12.40,1025,-4248,-2916,19932,452,-421,-31,50,64
12.42,1016,-4240,-2852,19928,438,-428,19,50,64
12.44,1014,-4172,-2828,20004,425,-488,28,50,64
12.46,1028,-4084,-2752,19888,391,-525,32,50,64
12.48,1014,-4016,-2812,20052,402,-464,62,50,64
12.50,1026,-3928,-2900,19980,402,-445,86,50,64
12.52,1024,-4024,-2896,19856,406,-441,43,50,64
12.54,1014,-4072,-2928,19956,395,-458,50,50,64
12.56,1018,-4112,-2760,19928,418,-475,34,50,64
12.58,1019,-4000,-2872,20072,434,-506,23,50,64
12.60,1022,-3896,-2876,19940,426,-432,35,50,64
12.62,1017,-4096,-2764,19920,446,-439,46,50,64
12.64,1014,-3988,-2820,19908,385,-417,44,50,64
12.66,1016,-4080,-2904,19888,425,-415,39,50,64
12.68,1031,-4076,-2900,19908,419,-469,30,50,64
12.70,1024,-3904,-2704,20000,454,-430,79,50,64
12.72,1021,-3948,-2776,19840,397,-330,80,50,64
12.74,1016,-4040,-2816,20004,422,-298,98,50,64
12.76,1023,-4072,-2956,20168,404,-312,75,50,64
12.78,1015,-4032,-2924,19964,434,-398,25,50,64
12.80,1028,-4132,-2860,19916,462,-376,-13,50,64
12.82,1013,-4076,-2820,19900,446,-377,-12,50,64
12.84,1019,-4120,-2784,19924,435,-379,-10,50,64
12.86,1022,-4044,-2804,19936,409,-462,17,50,64
12.88,1029,-4220,-2872,19992,390,-547,-26,50,64
12.90,1020,-4136,-2888,19920,421,-650,-61,50,64
12.92,1021,-3864,-2924,20048,438,-576,6,50,64
12.94,1016,-3860,-2828,20008,400,-488,23,50,64
12.96,1018,-3972,-2968,20228,419,-435,33,50,64
12.98,1019,-4060,-2812,19928,372,-364,84,50,64
13.00,1028,-4104,-2764,19848,420,-420,75,50,64
13.02,1024,-3980,-2812,19984,453,-371,75,50,64
13.04,1027,-3996,-2800,19964,422,-292,68,50,64
13.06,1016,-4036,-2900,19984,439,-384,39,50,64
13.08,1017,-3988,-2844,19916,438,-355,43,50,64
13.10,1024,-4156,-2912,19976,419,-383,12,50,64
13.12,1016,-4120,-2876,19924,429,-447,-36,50,64
13.14,1022,-4120,-2852,19916,444,-457,-32,50,64
13.16,1024,-4160,-2892,19928,458,-507,-21,50,64
13.18,1016,-4080,-2844,20012,441,-451,-20,50,64
13.20,1017,-4152,-2868,19984,415,-439,2,50,64
13.22,1031,-4144,-2940,19968,412,-489,0,50,64
13.24,1022,-3964,-2832,19960,458,-483,30,50,64
13.26,1025,-4052,-2768,19980,403,-364,70,50,63
13.28,1026,-4020,-2844,19928,403,-412,80,50,63
13.30,1014,-4128,-2896,20016,382,-484,16,50,63
13.32,1024,-4036,-2868,19892,445,-525,23,50,63
13.34,1020,-3940,-2856,19852,420,-449,42,50,63
13.36,1027,-4032,-2792,19952,397,-357,66,50,63
13.38,1024,-4072,-2976,19852,406,-400,5,50,63
13.40,1034,-4116,-2884,19824,426,-486,-8,50,63
13.42,1016,-3976,-2860,19856,452,-482,-38,50,63
13.44,1024,-4076,-2740,20036,438,-414,7,50,63
13.46,1026,-4056,-2804,19968,434,-341,72,50,63
13.48,1028,-4144,-2800,19904,417,-307,96,50,63
13.50,1016,-4084,-2868,19956,394,-310,110,50,63
13.52,1014,-4188,-2804,20008,418,-425,78,50,63
13.54,1030,-4112,-2880,19804,408,-557,-24,50,63
13.56,1031,-4020,-2912,20028,459,-595,-53,50,63
13.58,1029,-3840,-2828,19992,459,-530,-13,50,63
13.60,1020,-3976,-2732,20128,420,-394,34,50,63
13.62,1026,-4048,-2852,19812,407,-328,146,50,63
13.64,1016,-4176,-2640,19860,395,-339,96,50,63
13.66,1024,-4260,-2752,19840,366,-460,93,50,63
13.68,1024,-4052,-2820,19956,416,-500,40,50,63
13.70,1018,-3972,-2856,19952,380,-519,47,50,63
13.72,1020,-3972,-2880,19936,394,-477,-6,50,63
13.74,1026,-4000,-2848,19800,418,-498,-13,50,63
13.76,1029,-3984,-2936,19896,442,-447,-14,50,63
13.78,1018,-4004,-2732,20012,447,-354,75,50,63
13.80,1022,-3960,-2776,20016,447,-293,153,50,63
13.82,1014,-4164,-2720,19980,378,-222,134,50,63
13.84,1022,-4284,-2780,19928,380,-413,74,50,63
13.86,1030,-4072,-2796,19960,451,-418,61,50,63
13.88,1013,-4084,-2984,19980,434,-467,-10,50,63
13.90,1018,-4060,-2884,20020,436,-508,-45,50,63
13.92,1029,-4148,-2912,19952,449,-527,-104,50,63
13.94,1019,-3972,-2780,19820,445,-511,-62,50,63
13.96,1029,-3992,-2792,19928,465,-471,-13,50,63
13.98,1017,-4024,-2832,19932,418,-418,24,50,63
14.00,1015,-3984,-2756,20008,395,-337,50,50,63
14.02,1017,-4128,-2840,19760,371,-291,117,50,63
14.04,1024,-4224,-2788,19940,404,-399,99,50,63
14.06,1014,-4208,-2916,19904,386,-476,49,50,63
14.08,1031,-3912,-2900,19868,424,-516,44,50,63
14.10,1024,-3864,-2808,19972,445,-307,91,50,63
14.12,1016,-4012,-2760,19936,425,-170,116,50,63
14.14,1020,-4280,-2772,19892,396,-233,140,50,63
14.16,1015,-4220,-2848,19904,395,-392,80,50,63
14.18,1016,-4068,-2820,19824,417,-548,21,50,63
14.20,1021,-3796,-2948,20132,435,-485,7,50,63
14.22,1032,-3984,-2840,20024,429,-379,-36,50,63
14.24,1032,-4040,-2860,20108,488,-366,8,50,63
14.26,1021,-4148,-2776,19884,455,-309,-4,50,63
14.28,1024,-4276,-2692,19980,418,-425,12,50,63
14.30,1029,-4192,-2788,19952,403,-584,-8,50,63
14.32,1031,-4144,-2824,19788,381,-613,-6,50,63
14.34,1013,-3876,-2840,19900,442,-537,-22,50,63
14.36,1012,-3996,-2880,19944,453,-358,29,50,63
14.38,1016,-4164,-2816,19936,417,-342,37,50,63
14.40,1023,-4240,-2868,20080,388,-431,65,50,63
14.42,1040,-4144,-2816,19956,409,-520,30,50,63
14.44,1018,-4052,-2868,19892,419,-528,8,50,63
14.46,1031,-4004,-2784,19932,413,-427,-2,50,63
14.48,1001,-3936,-2876,19768,438,-304,76,50,63
14.50,1006,-4144,-2772,19852,403,-329,27,50,63
14.52,1014,-4240,-2904,19912,415,-486,-4,50,63
14.54,1012,-4228,-2976,19964,446,-542,-45,50,63
14.56,1003,-3976,-2804,19840,444,-505,-17,50,63
14.58,1013,-4000,-2764,19936,418,-397,37,50,63
14.60,1017,-4172,-2892,20016,369,-373,50,50,63
14.62,1027,-4196,-2952,19904,370,-520,20,50,63
14.64,1030,-4040,-2856,19872,439,-554,-16,50,63
14.66,1018,-3952,-2820,19828,444,-496,-12,50,63
14.68,1019,-3896,-2756,19972,405,-431,60,50,63
14.70,1021,-4080,-2784,19824,388,-361,119,50,63
14.72,1018,-4096,-2916,19924,391,-325,143,50,63
14.74,1019,-4272,-2848,19864,385,-378,103,50,63
14.76,1028,-4060,-2996,19864,436,-508,45,50,63
14.78,1024,-4092,-2892,20104,408,-516,-27,50,63
14.80,1029,-3936,-2928,20120,471,-497,-25,50,63
14.82,1026,-3848,-2812,20008,463,-335,7,50,63
14.84,1020,-4144,-2684,19992,435,-223,78,50,63
14.86,1034,-4168,-2768,19820,433,-310,78,50,63
14.88,1018,-4252,-2800,19908,427,-401,60,50,63
14.90,1013,-4272,-2820,19912,437,-577,-30,50,63
14.92,1013,-3912,-2924,20116,460,-615,-90,50,63
14.94,1024,-3836,-2824,20068,466,-489,-38,50,63
14.96,1020,-3928,-2808,20048,437,-313,85,50,63
14.98,1022,-4288,-2740,19848,379,-286,164,50,63
15.00,1012,-4336,-2784,19876,367,-403,120,50,63
15.02,1018,-4268,-2788,19852,383,-504,74,50,63
15.04,1024,-4036,-2944,19960,418,-561,30,50,63
15.06,1035,-4004,-3116,20000,434,-497,33,50,63
15.08,1029,-3876,-2864,19960,459,-368,43,50,63
15.10,1019,-3980,-2820,19872,445,-189,110,50,63
15.12,1013,-4384,-2748,19824,332,-234,155,50,63
15.14,1020,-4432,-2664,19900,432,-515,28,50,63
15.16,1026,-3996,-3036,19888,460,-632,-72,50,63
15.18,1028,-3840,-2704,19944,485,-517,-51,50,63
15.20,1014,-4000,-2768,20028,443,-392,18,50,63
15.22,1018,-4240,-2832,19944,366,-354,110,50,63
15.24,1012,-4340,-2864,19880,355,-522,29,50,63
15.26,1026,-4160,-2816,19780,422,-583,49,50,63
15.28,1011,-3932,-2764,19884,418,-444,50,50,63
15.30,1025,-4080,-2772,20020,409,-433,75,50,63
15.32,1026,-4096,-2872,19964,399,-349,77,50,63
15.34,1025,-4228,-2824,20056,370,-440,77,50,63
15.36,1011,-4312,-2800,19884,366,-592,10,50,63
15.38,1028,-4136,-2800,19908,387,-594,37,50,63
15.40,1027,-3956,-2796,20056,396,-535,64,50,63
15.42,1011,-3860,-2812,20056,412,-441,70,50,63
15.44,1024,-4084,-2844,20028,403,-402,58,50,63
15.46,1013,-4044,-2796,20020,393,-502,18,50,63
15.48,1018,-4120,-2876,19812,425,-517,-13,50,63
15.50,1016,-4004,-2768,19948,443,-515,7,50,63
15.52,1027,-4044,-2920,19992,420,-474,-36,50,63
15.54,1020,-4076,-2816,19964,393,-478,-7,50,63
15.56,1017,-4128,-2788,19964,410,-504,22,50,63
15.58,1014,-3996,-2780,19876,404,-523,10,50,63
15.60,1024,-4020,-2884,19884,440,-524,-2,50,63
15.62,1018,-4020,-2836,19936,417,-485,8,50,63
15.64,1025,-4068,-2784,19884,381,-472,47,50,63
15.66,1020,-4104,-2836,19896,400,-472,26,50,63
15.68,1028,-4128,-2808,19940,414,-460,48,50,63
15.70,1014,-3980,-3008,19960,453,-470,33,50,63
15.72,1011,-4028,-2764,20080,386,-400,108,50,63
15.74,1032,-3996,-2796,19888,407,-379,89,50,63
15.76,1028,-4092,-2828,20060,355,-469,55,50,63
15.78,1018,-4128,-2796,19916,390,-601,-3,50,63
15.80,1027,-4040,-2952,19936,449,-551,-14,50,63
15.82,1018,-4044,-2912,19848,444,-433,14,50,63
15.84,1025,-4024,-2848,19872,391,-440,78,50,63
15.86,1026,-4104,-2896,19832,375,-474,74,50,63
15.88,1025,-4140,-2812,19936,387,-546,19,50,63
15.90,1016,-4068,-2920,19912,376,-563,41,50,63
15.92,1016,-3980,-2816,19852,409,-498,62,50,63
15.94,1015,-4064,-2928,19868,406,-445,69,50,63
15.96,1008,-3996,-2852,20044,383,-439,68,50,63
15.98,1011,-4044,-2836,19820,380,-473,41,50,63
16.00,1026,-4132,-2820,19916,411,-525,5,50,63
16.02,1014,-4120,-2944,19856,403,-592,-28,50,63
16.04,1022,-3928,-2792,19860,400,-584,-44,50,63
16.06,1024,-3964,-2796,19996,402,-511,-17,50,63
16.08,1023,-4060,-2812,20016,367,-520,48,50,63
16.10,1023,-4076,-2772,19872,375,-528,10,50,63
16.12,1006,-4036,-2856,19908,395,-559,-59,50,63
16.14,1030,-3940,-2936,19816,460,-574,-60,50,63
16.16,1028,-3988,-2776,19972,459,-496,7,50,63
16.18,1012,-3972,-2772,19948,412,-482,-12,50,63
16.20,1013,-4228,-2864,19840,383,-538,-47,50,63
16.22,1013,-3944,-2816,19884,435,-606,-99,50,63
16.24,1024,-3832,-2936,19992,484,-606,-102,66,58
16.26,1013,-3880,-2832,20004,458,-519,-65,66,58
16.28,1020,-4068,-2844,19912,436,-491,-31,66,58
16.30,1016,-4068,-2712,19840,418,-445,17,66,58
16.32,1024,-3948,-2872,19948,425,-420,102,66,58
16.34,1011,-4016,-2840,20108,403,-394,103,66,58
16.36,1017,-3840,-2940,20184,390,-327,90,66,58
16.38,1020,-4036,-3016,20024,422,-347,9,66,58
16.40,1025,-4040,-3080,19900,490,-374,-42,66,58
16.42,1027,-3844,-2896,20012,519,-325,-44,66,58
16.44,1012,-3920,-2880,19976,488,-304,-75,66,58
16.46,1019,-3952,-2960,19980,491,-388,-75,66,58
16.48,1026,-4036,-2872,19992,498,-363,-55,66,58
16.50,1015,-3980,-2796,19748,488,-340,5,66,58
16.52,1028,-4016,-2824,19884,486,-271,63,66,58
16.54,1016,-3960,-2780,19972,461,-235,168,66,58
16.56,1029,-4108,-2852,20068,422,-215,198,66,58
16.58,1024,-4076,-2796,20012,402,-262,192,66,58
16.60,1008,-4856,-2456,19844,318,-416,80,66,58
16.62,1012,-3892,-3028,19624,313,-515,-37,66,58
16.64,1009,-4120,-3040,19984,518,-344,41,66,58
16.66,1020,-3404,-2836,20288,515,-173,245,66,58
16.68,1014,-3704,-2728,20076,426,302,422,66,58
16.70,1031,-4352,-2668,19824,385,369,385,66,58
16.72,1024,-4360,-2732,19720,462,202,293,66,58
16.74,1026,-4672,-2752,19928,347,-206,190,66,58
16.76,1011,-4292,-2880,19892,415,-560,107,66,58
16.78,1033,-4380,-2736,20024,338,-712,18,66,58
16.80,1008,-4192,-2804,20108,346,-835,-44,66,58
16.82,1020,-3868,-2608,19872,384,-840,-42,66,58
16.84,1025,-3904,-2880,19876,349,-709,-26,66,58
16.86,1019,-4092,-2920,19988,359,-647,71,66,58
16.88,1021,-3968,-2856,20036,358,-506,73,66,58
16.90,1014,-4136,-2804,20004,376,-479,114,66,58
16.92,1017,-4104,-2836,19880,390,-498,110,66,58
16.94,1029,-4116,-2868,20048,349,-597,86,66,58
16.96,1022,-4152,-2916,20064,332,-709,-34,66,58
16.98,1008,-3896,-2920,19984,426,-720,-154,66,58
17.00,1018,-3688,-2892,19832,457,-581,-115,66,58
17.02,1024,-3840,-2784,19940,489,-378,-101,66,58
17.04,1025,-3996,-2808,19980,449,-275,-73,66,58
17.06,1022,-4084,-2872,19904,433,-331,-17,66,58
17.08,1016,-4252,-2924,19924,431,-410,-55,66,58
17.10,1018,-4108,-2868,19912,466,-471,-52,66,58
17.12,1025,-3956,-2760,19944,458,-474,-60,66,58
17.14,1012,-4000,-2792,19964,440,-415,15,66,58
17.16,1032,-4108,-2796,19892,362,-411,60,66,58
17.18,1019,-4172,-2848,19880,396,-513,8,66,58
17.20,1022,-4044,-2832,19944,417,-527,20,66,58
17.22,1021,-4016,-2868,19868,436,-473,38,66,58
17.24,1024,-3900,-2844,19976,443,-436,105,66,58
17.26,1021,-4084,-2784,20096,391,-368,61,66,58
17.28,1009,-4188,-2916,19872,393,-412,34,66,58
17.30,1014,-4080,-2864,19952,414,-521,8,66,58
17.32,1015,-3980,-2844,19932,436,-462,16,66,58
17.34,1013,-4008,-2848,20016,451,-421,28,66,58
17.36,1025,-3836,-2772,19964,462,-346,49,66,58
17.38,1019,-4112,-2884,19920,436,-245,78,66,58
17.40,1031,-4208,-2844,19844,468,-341,79,66,58
17.42,1015,-4104,-2784,19956,422,-408,67,66,58
17.44,1025,-4216,-2896,19932,425,-483,21,66,58
17.46,1019,-3932,-2880,20064,419,-505,-1,66,58
17.48,1024,-3904,-2868,19808,448,-448,39,66,58
17.50,1033,-4004,-2888,19748,436,-327,51,66,58
17.52,1031,-4304,-2812,19876,380,-392,75,66,58
17.54,1013,-4320,-2828,19972,400,-561,-5,66,58
17.56,1014,-4088,-2848,19964,394,-673,-30,66,58
17.58,1022,-3852,-2836,19740,447,-582,-14,66,58
17.60,1016,-3856,-2740,19936,394,-424,31,66,58
17.62,1016,-4052,-2888,20012,398,-336,30,66,58
17.64,1021,-4156,-2888,19972,379,-431,23,66,58
17.66,1013,-4140,-2900,20000,402,-500,-9,66,58
17.68,1024,-4048,-2756,19796,435,-518,4,66,58
17.70,1020,-3968,-2796,20000,411,-491,1,66,58
17.72,1023,-4092,-2748,19964,390,-504,47,66,58
17.74,1033,-4052,-2856,20020,386,-462,59,66,58
17.76,1020,-4064,-2952,19832,404,-497,28,66,58
17.78,1034,-4060,-2808,19904,464,-503,10,66,58
17.80,1026,-4016,-2824,19908,422,-486,17,66,58
17.82,1020,-4024,-2876,20004,453,-549,-4,66,58
17.84,1028,-3944,-2884,20028,420,-449,32,66,58
17.86,1016,-4024,-2824,20184,385,-311,55,66,58
17.88,1026,-4120,-2884,19964,444,-363,68,66,58
17.90,1025,-4160,-2824,20020,407,-426,-10,66,58
17.92,1014,-4048,-2852,20068,440,-555,-95,66,58
17.94,1022,-3932,-2812,19796,473,-605,-145,66,58
17.96,1020,-3772,-2884,19880,473,-507,-69,66,58
17.98,1014,-3876,-2792,19916,448,-341,35,66,58
18.00,1028,-4076,-2796,19932,419,-263,122,66,58
18.02,1018,-4100,-2852,19908,372,-375,112,66,58
18.04,1033,-4164,-2868,19992,389,-499,81,66,58
18.06,1028,-4096,-2848,19932,384,-543,49,66,58
18.08,1029,-4040,-2852,20012,393,-559,23,66,58
18.10,1020,-3892,-2876,19928,433,-522,32,66,58
18.12,1033,-3812,-2940,19892,432,-383,49,66,58
18.14,1020,-3980,-2952,19900,437,-373,101,66,58
18.16,1024,-4120,-2820,19928,417,-371,85,66,58
18.18,1022,-4004,-2776,19868,416,-399,90,66,58
18.20,1024,-4020,-2860,19956,450,-364,76,66,58
18.22,1016,-3988,-2892,20028,411,-343,81,66,58
18.24,1026,-4012,-2972,20004,413,-370,65,66,58
18.26,1034,-4024,-2928,20084,433,-363,10,66,58
18.28,1018,-4148,-2852,19912,432,-405,-6,66,58
18.30,1020,-4092,-2704,19876,426,-472,-26,66,58
18.32,1026,-3992,-2760,19844,431,-501,-35,66,58
18.34,1028,-4024,-2816,19952,425,-472,5,66,58
18.36,1015,-4016,-2872,20016,434,-430,16,66,58
18.38,1024,-4068,-2788,20016,411,-437,31,66,58
18.40,1027,-4212,-2720,19992,401,-479,19,66,58
18.42,1011,-4100,-2796,20004,429,-549,49,66,58
18.44,1010,-3944,-2884,20080,381,-448,82,66,58
18.46,1023,-3896,-2904,20148,378,-332,107,66,58
18.48,1029,-3996,-2896,20072,396,-356,102,66,58
18.50,1014,-4100,-2892,20024,401,-382,36,66,58
18.52,1028,-4080,-2884,19852,457,-476,5,66,58
18.54,1021,-3812,-2844,19988,490,-407,26,66,58
18.56,1019,-3916,-2832,20052,442,-309,78,66,58
18.58,1018,-4032,-2856,19896,419,-234,100,66,58
18.60,1017,-4184,-2848,19880,409,-298,103,66,58
18.62,1012,-4208,-2736,19896,420,-438,63,66,58
18.64,1034,-3920,-2900,20000,415,-504,-2,66,58
18.66,1029,-4004,-2928,20064,401,-509,-45,66,58
18.68,1012,-3964,-2796,19848,467,-483,-39,66,58
18.70,1024,-4088,-2896,19908,397,-440,-31,66,58
18.72,1027,-4100,-2864,19776,476,-473,-32,66,58
18.74,1030,-4124,-2836,19968,446,-522,-48,66,58
18.76,1013,-4028,-2844,20064,467,-468,27,66,58
18.78,1011,-3928,-2656,19872,439,-389,72,66,58
18.80,1023,-3996,-2684,19884,375,-330,152,66,58
18.82,1025,-3968,-2824,19964,401,-371,167,66,58
18.84,1014,-4136,-2872,19944,384,-285,174,66,58
18.86,1025,-4012,-2960,19856,375,-322,171,66,58
18.88,1024,-4076,-2792,20028,413,-326,148,66,58
18.90,1011,-4032,-2860,20080,390,-473,19,66,58
18.92,1021,-4024,-2948,19968,432,-505,-74,66,58
18.94,1014,-3920,-2908,19904,473,-507,-139,66,58
18.96,1024,-4092,-2868,20048,472,-474,-126,66,58
18.98,1028,-4048,-2832,19968,446,-417,-80,66,58
19.00,1024,-4224,-2800,20024,461,-478,-59,66,58
19.02,1025,-4032,-2848,19944,431,-536,-36,66,58
19.04,1011,-3932,-2752,19900,406,-520,18,66,58
19.06,1009,-3908,-2864,20140,394,-449,61,66,58
19.08,1014,-4048,-2848,20008,384,-354,125,66,58
19.10,1016,-4092,-2856,19980,390,-343,127,66,58
19.12,1027,-4088,-2936,19900,402,-430,81,66,58
19.14,1012,-3980,-2984,19872,434,-452,48,66,58
19.16,1009,-3968,-2920,20024,415,-389,50,66,58
19.18,1024,-4040,-2832,20024,424,-412,16,66,58
19.20,1026,-4124,-2788,19980,422,-454,-20,66,58
19.22,1019,-4128,-2920,19828,458,-428,-35,66,58
19.24,1026,-4060,-2860,19932,444,-453,-11,66,67
19.26,1013,-4136,-2848,19940,415,-503,-23,66,67
19.28,1024,-4128,-2880,20032,441,-483,34,66,67
19.30,1009,-4040,-2824,19748,379,-489,61,66,67
19.32,1032,-4112,-2816,19776,376,-459,68,66,67
19.34,1031,-4156,-2828,19972,367,-516,30,66,67
19.36,1013,-4204,-2828,20000,411,-544,29,66,67
19.38,1030,-3976,-2764,19784,409,-527,39,66,67
19.40,1025,-3992,-2792,19964,392,-444,96,66,67
19.42,1012,-4068,-2904,20108,379,-452,71,66,67
19.44,1020,-3960,-2976,19868,372,-455,65,66,67
19.46,1012,-3944,-3008,19948,388,-433,28,66,67
19.48,1024,-3992,-2840,19840,437,-444,-1,66,67
19.50,1026,-3948,-2812,20020,437,-439,-22,66,67
19.52,1017,-4000,-2808,20036,452,-480,-42,66,67
19.54,1027,-4052,-2876,19936,410,-455,-32,66,67
19.56,1017,-4128,-2948,19876,455,-494,-50,66,67
19.58,1026,-3948,-2812,19732,484,-461,-14,66,67
19.60,1031,-3964,-2796,19984,453,-368,73,66,67
19.62,1012,-4104,-2776,20144,391,-345,113,66,67
19.64,1029,-4068,-2736,19924,354,-430,145,66,67
19.66,1016,-4124,-2884,19928,366,-398,182,66,67
19.68,1006,-3996,-2932,19808,348,-422,137,66,67
19.70,1015,-4072,-2916,19960,376,-506,60,66,67
19.72,1024,-3968,-3028,19988,424,-582,-73,66,67
19.74,1022,-3848,-2992,19772,493,-416,-36,66,67
19.76,1007,-3980,-2880,19868,485,-257,10,66,67
19.78,1011,-4036,-2728,19880,492,-242,80,66,67
19.80,1021,-4268,-2764,19956,396,-203,113,66,67
19.82,1024,-4292,-2868,19804,358,-320,124,66,67
19.84,1019,-4132,-2872,19908,431,-488,42,66,67
19.86,1031,-3928,-2944,20020,424,-558,-22,66,67
19.88,1015,-4088,-2948,20096,433,-558,-99,66,67
19.90,1021,-3996,-2876,19912,456,-511,-79,66,67
19.92,1013,-3996,-2852,19828,440,-356,-39,66,67
19.94,1028,-4052,-2764,19856,502,-356,87,66,67
19.96,1027,-4148,-2692,19880,437,-303,102,66,67
19.98,1010,-4136,-2708,19960,414,-295,143,66,67
20.00,1011,-4108,-2884,20024,377,-390,151,66,67
20.02,1009,-3956,-2796,20048,397,-292,157,66,67
20.04,1019,-4060,-2992,20056,362,-390,48,66,67
20.06,1033,-4248,-2868,19952,420,-593,-83,66,67
20.08,1014,-4200,-2908,20088,457,-693,-187,66,67
20.10,1027,-3936,-2896,19880,487,-604,-133,66,67
20.12,1032,-3980,-2768,19968,461,-533,-90,66,67
20.14,1022,-3952,-2808,19876,429,-474,2,66,67
20.16,1019,-4280,-2860,20000,395,-466,22,66,67
20.18,1030,-4112,-2888,19920,392,-588,-17,66,67
20.20,1021,-3916,-2876,19808,419,-554,54,66,67
20.22,1015,-4104,-2804,19980,417,-434,115,66,67
20.24,1014,-3980,-2804,19888,355,-447,165,66,67
20.26,1023,-4060,-2872,20052,337,-413,164,66,67
20.28,1027,-4084,-2964,19948,353,-444,133,66,67
20.30,1026,-3996,-2924,19844,400,-524,49,66,67
20.32,1018,-4000,-2840,19864,458,-452,3,66,67
20.34,1025,-3932,-2892,20004,460,-364,17,66,67
20.36,1024,-3944,-2856,19996,448,-337,-10,66,67
20.38,1018,-4080,-2764,19864,451,-379,-9,66,67
20.40,1026,-4076,-2864,19908,424,-394,-17,66,67
20.42,1020,-4164,-2968,19788,438,-482,-16,66,67
20.44,1027,-3932,-2836,19952,455,-518,-28,66,67
20.46,1024,-3988,-2848,19948,419,-413,40,66,67
20.48,1010,-4144,-2820,19812,417,-387,18,66,67
20.50,1021,-4084,-2924,20016,425,-446,14,66,67
20.52,1012,-4160,-2772,19888,457,-441,28,66,67
20.54,1000,-3964,-2880,19940,400,-459,52,66,67
20.56,1029,-3904,-2864,20036,441,-406,91,66,67
20.58,1028,-4040,-2892,20008,365,-421,96,66,67
20.60,1014,-4116,-2796,19920,407,-495,10,66,67
20.62,1016,-3976,-2892,19912,425,-587,-27,66,67
20.64,1024,-3844,-2904,19956,480,-477,-32,66,67
20.66,1025,-3772,-2988,20028,446,-360,11,66,67
20.68,1024,-4040,-2820,19920,452,-198,93,66,67
20.70,1028,-4120,-2920,19900,398,-213,96,66,67
20.72,1014,-4164,-2756,19972,429,-346,98,66,67
20.74,1017,-4040,-2844,19892,410,-466,68,66,67
20.76,1018,-4016,-2776,20068,426,-528,10,66,67
20.78,1013,-3904,-2896,20080,392,-533,-20,66,67
20.80,1016,-4032,-2908,19968,445,-519,2,66,67
20.82,1030,-3976,-2760,19836,425,-411,5,66,67
20.84,1027,-4156,-2856,19840,423,-366,38,66,67
20.86,1021,-4064,-2768,19956,415,-479,24,66,67
20.88,1028,-4024,-2956,20088,390,-422,44,66,67
20.90,1026,-4184,-2860,19752,430,-437,43,66,67
20.92,1020,-4040,-2760,19800,501,-455,7,66,67
20.94,1027,-3968,-2820,19936,457,-403,27,66,67
20.96,1014,-3900,-2896,19880,551,-179,43,66,67
20.98,1023,-4132,-2832,20128,440,-301,29,66,67
21.00,1024,-3864,-3116,19928,402,-248,14,66,67
21.02,1015,-4088,-2844,19908,539,-228,-11,66,67
21.04,1017,-3908,-2880,19944,565,-282,-49,66,67
21.06,1026,-4040,-2756,20004,515,-132,21,66,67
21.08,1004,-4260,-2772,20008,503,-240,16,66,67
21.10,1024,-4196,-2452,19948,465,-414,57,66,67
21.12,1027,-4092,-2952,19464,318,-394,103,66,67
21.14,1023,-4072,-2800,19976,403,-420,118,66,67
21.16,1023,-4160,-2788,19912,352,-355,162,66,67
21.18,1022,-4004,-2944,19944,431,-262,270,66,67
21.20,1022,-4320,-2692,19984,226,-322,220,66,67
21.22,1021,-4200,-2808,20024,458,-520,175,66,67
21.24,1024,-4020,-2648,19708,269,-535,134,66,67
21.26,1014,-4000,-2788,19964,385,-454,155,66,67
21.28,1029,-4080,-2756,19840,357,-389,150,66,67
21.30,1028,-4148,-2848,20076,380,-433,107,66,67
21.32,1030,-4304,-2832,19980,372,-507,18,66,67
21.34,1010,-4072,-2832,19900,451,-531,-23,66,67
21.36,1024,-3928,-2800,20096,443,-557,-51,66,67
21.38,1026,-3920,-2796,20148,466,-448,-51,66,67
21.40,1030,-4044,-2812,19956,421,-362,-28,66,67
21.42,1024,-4368,-2780,20012,462,-409,-46,66,67
21.44,1025,-4236,-2872,19916,426,-492,-38,66,67
21.46,1020,-4240,-2772,20060,383,-522,-25,66,67
21.48,1011,-4152,-2780,20016,418,-605,-32,66,67
21.50,1019,-3972,-2780,20060,407,-579,-59,66,67
21.52,1026,-3928,-2888,19888,412,-485,-39,66,67
21.54,1024,-4036,-2888,19912,455,-424,-7,66,67
21.56,1021,-4068,-2784,19956,423,-327,43,66,67
21.58,1030,-4284,-2796,19988,413,-383,76,66,67
21.60,1010,-4136,-2816,19840,387,-462,77,66,67
21.62,1015,-4180,-2824,20084,377,-499,40,66,67
21.64,1018,-3980,-2816,19784,414,-442,70,66,67
21.66,1028,-3940,-2724,19948,418,-334,85,66,67
21.68,1025,-4024,-2712,19908,434,-325,116,66,67
21.70,1022,-4160,-2848,19908,425,-294,122,66,67
21.72,1010,-4292,-2876,19924,380,-361,64,66,67
21.74,1017,-4196,-2936,19948,442,-513,71,66,67
21.76,1011,-4100,-2988,19968,425,-593,-30,66,67
21.78,1038,-3888,-2932,19892,472,-483,-71,66,67
21.80,1032,-3800,-2884,19968,470,-281,-10,66,67
21.82,1031,-4076,-2820,19948,496,-254,73,66,67
21.84,1017,-4460,-2800,20076,408,-311,75,66,67
21.86,1020,-4344,-2788,19768,389,-517,49,66,67
21.88,1016,-4176,-2668,20008,397,-592,55,66,67
21.90,1030,-3912,-2832,19956,353,-537,32,66,67
21.92,1027,-3944,-2976,19912,397,-427,33,66,67
21.94,1017,-4104,-2964,19960,410,-350,48,66,67
21.96,1015,-4260,-2884,19792,445,-408,59,66,67
21.98,1025,-4180,-2652,19820,393,-422,40,66,67
22.00,1016,-4124,-2772,19908,383,-498,80,66,67
22.02,1030,-4048,-2804,19976,417,-451,88,66,67
22.04,1018,-4184,-2860,19976,357,-540,-24,66,67
22.06,1012,-4196,-2996,20164,417,-639,-140,66,67
22.08,1018,-4068,-3088,19948,467,-655,-191,66,67
22.10,1024,-3912,-2776,19988,522,-513,-102,66,67
22.12,1015,-3928,-2664,19956,455,-340,35,66,67
22.14,1007,-4136,-2660,19968,368,-306,154,66,67
22.16,1018,-4400,-2796,19828,308,-464,120,66,67
22.18,1009,-4284,-2948,19912,396,-687,12,66,67
22.20,1006,-3964,-2964,19976,399,-784,-138,66,67
22.22,1019,-3692,-2956,20064,512,-616,-81,66,73
22.24,1017,-3668,-2796,20056,450,-326,16,66,73
22.26,1020,-4208,-2680,19932,379,-251,90,66,73
22.28,1018,-4312,-2848,19772,363,-456,101,66,73
22.30,1018,-4236,-2916,19920,337,-582,47,66,73
22.32,1015,-4064,-2952,19984,407,-703,-63,66,73
22.34,1016,-3888,-2912,19944,432,-680,-116,66,73
22.36,1015,-3840,-2900,19892,462,-505,-110,66,73
22.38,1018,-4024,-2880,20008,444,-365,0,66,73
22.40,1024,-4204,-2640,19868,433,-479,71,66,73
22.42,1030,-4224,-2808,19804,338,-461,17,66,73
22.44,1010,-4216,-3056,19968,362,-642,-6,66,73
22.46,1026,-4120,-2748,19912,386,-769,-106,66,73
22.48,1025,-3896,-2844,19928,474,-812,-168,66,73
22.50,1028,-3796,-2816,19924,439,-577,-134,66,73
22.52,1025,-3748,-3020,19968,512,-505,-41,66,73
22.54,1008,-3792,-2864,20016,362,-413,40,66,73
22.56,1033,-3900,-2880,20000,403,-342,88,66,73
22.58,1019,-3992,-2888,19948,451,-279,67,66,73
22.60,1026,-3996,-2968,19844,483,-296,29,66,73
22.62,1018,-3920,-2760,20064,497,-347,9,66,73
22.64,1014,-4004,-2860,20004,491,-359,14,66,73
22.66,1012,-4136,-2752,19972,385,-452,24,66,73
22.68,1032,-4112,-2828,19908,408,-579,21,66,73
22.70,1016,-4036,-2864,19828,368,-649,-13,66,73
22.72,1015,-4072,-2876,19848,394,-700,-32,66,73
22.74,1010,-3932,-2860,19968,382,-716,-41,66,73
22.76,1020,-3980,-2908,20004,373,-630,-14,66,73
22.78,1012,-3980,-2768,20008,372,-622,-8,66,73
22.80,1030,-3892,-2872,19920,371,-596,54,66,73
22.82,1025,-3960,-2868,19964,334,-622,0,66,73
22.84,1024,-4024,-2840,20004,369,-672,11,66,73
22.86,1009,-3832,-2788,19952,361,-568,13,66,73
22.88,1026,-3904,-2908,19872,371,-508,70,66,73
22.90,1027,-3596,-2908,20060,402,-454,107,66,73
22.92,1018,-3968,-2848,20096,386,-389,87,66,73
22.94,1021,-4040,-2856,20076,372,-404,27,66,73
22.96,1016,-4084,-2932,19892,404,-458,6,66,73
22.98,1029,-4040,-2912,19808,368,-588,-116,66,73
23.00,1025,-3904,-2888,19828,459,-642,-126,66,73
23.02,1018,-3964,-2864,19860,376,-681,-123,66,73
23.04,1009,-3836,-2952,20116,469,-806,-154,66,73
23.06,1010,-3804,-2828,20280,331,-657,-135,66,73
23.08,1016,-3912,-2824,19716,466,-533,-120,66,73
23.10,1023,-3828,-2896,19944,415,-550,-91,66,73
23.12,1035,-3700,-2988,19952,354,-496,-45,66,73
23.14,1024,-3860,-3088,19928,401,-563,-6,66,73
23.16,1020,-3840,-2920,20132,379,-683,-52,66,73
23.18,1031,-4080,-2768,19792,340,-731,-106,66,73
23.20,1008,-3816,-2916,19828,437,-650,-160,66,73
23.22,1013,-3692,-2920,19908,307,-700,-109,66,73
23.24,1022,-3760,-3052,20176,485,-727,-87,66,73
23.26,1021,-3720,-2936,20196,429,-655,-138,66,73
23.28,1024,-3632,-2980,19968,464,-556,-96,66,73
23.30,1014,-3768,-2920,19936,447,-510,-32,66,73
23.32,1027,-3664,-2876,19972,479,-444,29,66,73
23.34,1015,-3804,-2824,20100,415,-259,104,66,73
23.36,1016,-3840,-2904,19916,377,-310,131,66,73
23.38,1009,-3852,-2872,19920,399,-357,129,66,73
23.40,1018,-3316,-3060,20220,414,-404,288,66,73
23.42,1024,-3840,-2708,20016,528,-6,327,66,73
23.44,1018,-3604,-2964,19844,367,61,292,66,73
23.46,1004,-4056,-2936,19844,387,0,175,66,73
23.48,1013,-4316,-2844,19944,324,-440,16,66,73
23.50,1020,-4060,-3040,19840,479,-573,-154,66,73
23.52,1036,-4072,-2904,20052,390,-685,-251,66,73
23.54,1022,-3796,-2884,20116,490,-862,-292,66,73
23.56,1023,-3820,-2768,20064,263,-950,-321,66,73
23.58,1028,-3676,-2980,19812,525,-878,-317,66,73
23.60,1008,-3528,-2716,19856,389,-417,-184,66,73
23.62,1008,-3884,-3120,19884,398,-469,-146,66,73
23.64,1008,-3888,-2920,19844,473,-737,-125,66,73
23.66,1030,-3992,-2764,20000,346,-811,-160,66,73
23.68,1023,-3592,-2840,19868,432,-818,-170,66,73
23.70,1024,-3660,-2680,20004,309,-723,-109,66,73
23.72,1022,-3568,-3016,20064,424,-658,-62,66,73
23.74,1008,-3720,-2956,19980,226,-626,-97,66,73
23.76,1017,-3832,-3024,19932,274,-947,-105,66,73
23.78,1017,-3564,-2852,19836,357,-537,-145,66,73
23.80,1012,-3696,-2940,19808,370,-665,-78,66,73
23.82,1007,-3408,-2924,20028,467,-780,-46,66,73
23.84,1023,-3432,-2892,20128,349,-459,7,66,73
23.86,995,-3748,-2980,20024,376,-456,20,66,73
23.88,1004,-3628,-2932,19840,444,-494,-1,66,73
23.90,1017,-3644,-2912,20004,417,-508,-38,66,73
23.92,1027,-3744,-2900,20024,406,-605,-41,66,73
23.94,1017,-3420,-2880,19916,419,-524,-40,66,73
23.96,1036,-3496,-3072,19996,420,-437,21,66,73
23.98,1021,-3472,-2888,20056,469,-264,130,66,73
24.00,1016,-3644,-2940,19852,442,-162,117,66,73
24.02,1015,-3692,-2824,20116,446,-253,162,66,73
24.04,1003,-3712,-2960,20128,379,-362,112,66,73
24.06,1005,-3752,-2960,19900,381,-456,22,66,73
24.08,1024,-3680,-2876,20124,413,-531,6,66,73
24.10,1016,-3588,-3036,20052,428,-488,-9,66,73
24.12,1025,-3612,-2960,19984,434,-437,35,66,73
24.14,1024,-3676,-2824,19984,427,-423,91,66,73
24.16,1032,-3640,-2864,20000,377,-446,95,66,73
24.18,1018,-3672,-2868,20000,346,-508,73,66,73
24.20,1010,-3708,-2944,19876,388,-538,-11,66,73
24.22,1029,-3684,-3100,20044,423,-598,-49,66,73
24.24,1022,-3516,-3096,20032,471,-540,-44,66,73
24.26,1022,-3544,-2888,20080,416,-463,-8,66,73
24.28,1016,-3512,-2812,20060,413,-365,48,66,73
24.30,1013,-3516,-2892,19940,358,-415,85,66,73
24.32,1024,-3708,-2996,19908,381,-466,34,66,73
24.34,1015,-3708,-2924,19812,385,-517,32,66,73
24.36,1025,-3672,-3000,19812,423,-474,22,66,73
24.38,1020,-3512,-2964,20228,412,-433,50,66,73
24.40,1028,-3600,-2904,19980,361,-388,108,66,73
24.42,1023,-3628,-2880,20144,341,-394,100,66,73
24.44,1027,-3592,-3008,20132,363,-469,75,66,73
24.46,1012,-3528,-2916,19968,375,-401,37,66,73
24.48,1010,-3596,-3180,20100,459,-547,-26,66,73
24.50,1023,-3600,-2896,19980,422,-504,-62,66,73
24.52,1027,-3596,-2992,20016,432,-477,-11,66,73
24.54,1015,-3692,-2964,20016,401,-436,-8,66,73
24.56,1016,-3580,-2972,20076,425,-463,-1,66,73
24.58,1012,-3600,-2828,20060,424,-468,18,66,73
24.60,1025,-3576,-2968,20028,392,-515,-16,66,73
24.62,1022,-3508,-2908,19992,425,-539,-8,66,73
24.64,1006,-3544,-2952,19908,390,-460,5,66,73
24.66,1016,-3568,-2936,20108,369,-392,16,66,73
24.68,1012,-3624,-3144,20052,433,-485,27,66,73
24.70,1017,-3708,-2844,20020,395,-440,20,66,73
24.72,1025,-3584,-2988,19968,372,-482,24,66,73
24.74,1011,-3520,-2876,19964,441,-481,-5,66,73
24.76,1029,-3484,-2948,20040,412,-425,45,66,73
24.78,1009,-3560,-2968,20020,453,-326,61,66,73
24.80,1032,-3640,-3080,19964,404,-336,45,66,73
24.82,1017,-3640,-2896,20048,476,-384,64,66,73
24.84,1016,-3464,-2884,19828,441,-375,78,66,73
24.86,1012,-3500,-2980,20136,400,-256,136,66,73
24.88,1021,-3660,-2996,20068,356,-314,110,66,73
24.90,1016,-3516,-3004,19956,397,-292,56,66,73
24.92,1020,-3736,-2976,20032,437,-350,-9,66,73
24.94,1014,-3784,-3060,20036,466,-429,-55,66,73
24.96,1031,-3704,-2988,20032,463,-447,-68,66,73
24.98,1018,-3552,-2960,19920,440,-468,-47,66,73
25.00,1029,-3532,-2932,19956,484,-426,18,66,73
25.02,1025,-3612,-2916,20064,431,-328,71,66,73
25.04,1020,-3764,-2948,19872,442,-319,112,66,73
25.06,1026,-3848,-2936,20048,396,-402,80,66,73
25.08,1016,-3692,-2936,19972,396,-513,87,66,73
25.10,1018,-3444,-2964,20004,398,-506,41,66,73
25.12,1011,-3532,-3044,19828,443,-390,74,66,73
25.14,1016,-3660,-2956,19976,418,-368,24,66,73
25.16,1026,-3660,-2992,19984,431,-451,14,66,73
25.18,1026,-3604,-3012,20256,472,-442,1,66,73
25.20,1028,-3484,-3032,19808,501,-470,-51,66,73
25.22,1017,-3400,-2960,20008,472,-266,43,66,74
25.24,1015,-3564,-2940,20092,452,-212,91,66,74
25.26,1022,-3636,-2876,20116,457,-231,103,66,74
25.28,1010,-3724,-2940,20116,407,-200,104,66,74
25.30,1019,-3844,-3024,19940,413,-306,139,66,74
25.32,1020,-3788,-2896,20136,430,-395,87,66,74
25.34,1016,-3560,-3084,20048,414,-269,118,66,74
25.36,1029,-3788,-2980,20064,435,-210,94,66,74
25.38,1016,-3648,-2920,19904,475,-269,55,66,74
25.40,1029,-3796,-2892,20040,472,-262,18,66,74
25.42,1025,-3700,-2832,19904,472,-272,47,66,74
25.44,1019,-3604,-2884,20044,494,-214,71,66,74
25.46,1024,-3684,-2952,20024,443,-202,92,66,74
25.48,1012,-3760,-3024,20156,453,-243,67,66,74
25.50,1011,-3780,-2920,20052,432,-300,23,66,74
25.52,1024,-4044,-2768,19964,436,-435,-43,66,74
25.54,1021,-3780,-2872,19948,497,-518,-89,66,74
25.56,1016,-3612,-2904,20104,468,-465,-79,66,74
25.58,1028,-3624,-2884,19980,478,-511,-45,66,74
25.60,1022,-3712,-2892,19944,409,-415,25,66,74
25.62,1024,-3880,-2840,20044,414,-477,28,66,74
25.64,1023,-3816,-2860,19884,399,-537,-5,66,74
25.66,1013,-3708,-2916,20000,393,-492,56,66,74
25.68,1014,-3668,-2828,20196,409,-513,24,66,74
25.70,1009,-3744,-2964,20132,435,-491,44,66,74
25.72,1019,-3896,-2928,20160,379,-407,48,66,74
25.74,1017,-3816,-2952,19944,379,-493,14,66,74
25.76,1026,-3780,-2984,20056,440,-471,26,66,74
25.78,1024,-3652,-3032,19916,419,-441,3,66,74
25.80,1019,-3972,-2812,19948,395,-605,-36,66,74
25.82,1021,-3692,-2984,19788,382,-681,-49,66,74
25.84,1017,-3528,-2860,19796,443,-567,-64,66,74
25.86,1014,-3388,-2996,19956,435,-463,-15,66,74
25.88,1028,-3544,-2860,20132,439,-320,49,66,74
25.90,1031,-3864,-2956,20240,431,-338,20,66,74
25.92,1020,-3752,-2836,20016,446,-402,33,66,74
25.94,1030,-3688,-2896,20044,429,-455,-2,66,74
25.96,1026,-3704,-2860,19948,445,-459,25,66,74
25.98,1006,-3704,-3048,20068,408,-430,-16,66,74
26.00,1015,-3764,-2900,19884,418,-473,-28,66,74
26.02,1022,-3776,-2792,19908,445,-534,-13,66,74
26.04,1016,-3752,-2904,20040,405,-527,-9,66,74
26.06,1026,-3632,-2932,19980,398,-557,-21,66,74
26.08,1017,-3676,-2948,20048,387,-551,-23,66,74
26.10,1014,-3624,-3024,19924,395,-451,-20,66,74
26.12,1006,-3708,-3184,19788,450,-438,10,66,74
26.14,1020,-3588,-2896,19980,425,-399,62,66,74
26.16,1026,-3588,-2976,20124,413,-335,124,66,74
26.18,1020,-3616,-2896,19984,391,-329,85,66,74
26.20,1020,-3752,-2920,19948,392,-419,88,66,74
26.22,1012,-3772,-2900,19944,397,-455,10,66,74
26.24,1025,-3788,-2988,20028,413,-521,-44,66,74
26.26,1024,-3736,-2920,19948,406,-547,-55,66,74
26.28,1024,-3724,-2856,20080,416,-541,-36,66,74
26.30,1009,-3564,-2980,19924,366,-468,-19,66,74
26.32,1034,-3772,-3036,20004,428,-521,19,66,74
26.34,1014,-3648,-2892,19896,411,-442,9,66,74
26.36,1025,-3560,-2972,20096,427,-396,86,66,74
26.38,1026,-3628,-2864,19876,401,-320,78,66,74
26.40,1010,-3736,-2916,20024,393,-355,38,66,74
26.42,1015,-3676,-2984,20052,415,-429,22,66,74
26.44,1025,-3752,-2964,20028,411,-466,33,66,74
26.46,1018,-3692,-2912,20056,445,-451,-5,66,74
26.48,1021,-3660,-2956,20032,389,-486,20,66,74
26.50,1011,-3724,-2924,20248,415,-519,-21,66,74
26.52,1011,-3564,-2944,19880,406,-384,-10,66,74
26.54,1027,-3660,-2952,19972,424,-441,16,66,74
26.56,1025,-3696,-2972,20068,451,-500,4,66,74
26.58,1013,-3624,-3096,19956,428,-501,-33,66,74
26.60,1025,-3624,-2880,20024,444,-477,-4,66,74
26.62,1018,-3684,-2864,19960,437,-429,31,66,74
26.64,1013,-3668,-3044,20020,443,-400,37,66,74
26.66,1024,-3540,-3104,19820,393,-333,76,66,74
26.68,1024,-3892,-2920,20048,397,-337,61,66,74
26.70,1011,-3836,-2976,19972,425,-424,48,66,74
26.72,1030,-3772,-2888,20108,440,-464,4,66,74
26.74,1015,-3672,-2920,19908,421,-469,49,66,74
26.76,1016,-3596,-2864,20028,402,-417,64,66,74
26.78,1011,-3768,-2900,20076,396,-414,65,66,74
26.80,1021,-3808,-2972,20056,445,-481,24,66,74
26.82,1028,-3692,-2912,20024,406,-493,-12,66,74
26.84,1014,-3696,-2992,20020,427,-555,-21,66,74
26.86,1020,-3668,-2932,19996,418,-536,17,66,74
26.88,1014,-3568,-2940,19984,388,-440,21,66,74
26.90,1028,-3692,-2968,19980,401,-383,46,66,74
26.92,1013,-3752,-2956,19816,425,-398,33,66,74
26.94,1025,-3688,-2864,20080,439,-431,22,66,74
26.96,1014,-3684,-3004,19912,422,-412,41,66,74
26.98,1031,-3656,-2940,19992,408,-386,79,66,74
27.00,1026,-3592,-3008,20100,407,-438,1,66,74
27.02,1009,-3764,-2924,20108,419,-374,-34,66,74
27.04,1021,-3696,-3052,19956,399,-482,-19,66,74
27.06,1010,-3568,-2908,20032,446,-487,-4,66,74
27.08,1013,-3736,-2956,20172,411,-510,-26,66,74
27.10,1022,-3724,-2880,19984,424,-570,13,66,74
27.12,1021,-3676,-2912,19888,356,-545,22,66,74
27.14,1029,-3772,-2880,20004,441,-698,-3,66,74
27.16,1026,-3448,-3072,20052,397,-631,-26,66,74
27.18,1026,-3608,-3000,19952,338,-436,68,66,74
27.20,1016,-3604,-2840,19928,345,-418,116,66,74
27.22,1028,-3484,-3016,19968,407,-377,93,66,74
27.24,1026,-3628,-3076,19888,375,-362,57,66,74
27.26,1013,-3760,-3168,19964,415,-397,75,66,74
27.28,1022,-3828,-3044,19924,442,-444,9,66,74
27.30,1026,-3736,-2920,19908,445,-482,-19,66,74
27.32,1028,-3616,-2856,20148,445,-483,13,66,74
27.34,1020,-3596,-2952,19944,421,-418,49,66,74
27.36,1017,-3692,-2928,20096,416,-407,7,66,74
27.38,1017,-3840,-3068,19960,431,-396,23,66,74
27.40,1024,-3756,-2920,19760,432,-465,30,66,74
27.42,1018,-3628,-2924,19984,469,-524,34,66,74
27.44,1018,-3500,-2948,20140,416,-442,47,66,74
27.46,1024,-3636,-2932,20164,387,-405,112,66,74
27.48,1013,-3652,-2988,19860,388,-430,56,66,74
27.50,1018,-3736,-2984,19892,415,-431,57,66,74
27.52,1015,-3680,-3108,20008,442,-446,62,66,74
27.54,1024,-3652,-3008,20056,417,-430,83,66,74
27.56,1020,-3608,-2940,20108,384,-417,126,66,74
27.58,1026,-3628,-2880,20064,411,-376,113,66,74
27.60,1010,-3568,-3012,20052,388,-446,67,66,74
27.62,1013,-3692,-2972,20032,418,-421,65,66,74
27.64,1025,-3768,-2992,20180,399,-486,-6,66,74
27.66,1024,-3772,-2876,19840,437,-559,-17,66,74
27.68,1020,-3708,-2916,19836,410,-606,-39,66,74
27.70,1016,-3608,-2944,20052,411,-584,-12,66,74
27.72,1026,-3508,-2912,20024,402,-563,-3,66,74
27.74,1006,-3592,-2976,20144,404,-478,5,66,74
27.76,1038,-3684,-2976,19872,429,-459,10,66,74
27.78,1034,-3648,-2956,20000,415,-404,26,66,74
27.80,1027,-3716,-2940,20004,396,-377,40,66,74
27.82,1019,-3688,-2960,20056,376,-444,54,66,74
27.84,1021,-3712,-2904,19992,401,-462,31,66,74
27.86,1034,-3656,-2900,20016,396,-507,8,66,74
27.88,1006,-3536,-3032,19820,425,-496,-35,66,74
27.90,1026,-3608,-3056,19928,434,-485,7,66,74
27.92,1012,-3512,-2928,20024,424,-448,18,66,74
27.94,1013,-3704,-3004,19952,390,-449,64,66,74
27.96,1024,-3572,-2948,19928,441,-480,38,66,74
27.98,1016,-3564,-2936,19908,429,-449,59,66,74
28.00,1020,-3612,-2988,20060,439,-418,41,66,74
28.02,1028,-3548,-2936,20044,451,-405,40,66,74
28.04,1029,-3704,-3056,19980,441,-327,17,66,74
28.06,1026,-3648,-2920,19924,435,-369,-17,66,74
28.08,1020,-3744,-3008,20012,446,-424,-47,66,74
28.10,1015,-3564,-3000,19924,466,-469,-38,66,74
28.12,1020,-3604,-2836,19956,417,-459,-31,66,74
28.14,1030,-3568,-2944,20092,435,-432,13,66,74
28.16,1034,-3712,-2960,19984,411,-458,10,66,74
28.18,1028,-3600,-2912,20016,414,-491,24,66,74
28.20,1008,-3540,-3016,19948,430,-440,45,66,74
28.22,1022,-3556,-2904,19948,411,-387,69,79,73
28.24,1028,-3576,-2860,20100,395,-356,88,79,73
28.26,1010,-3696,-2980,20024,390,-330,97,79,73
28.28,1025,-3760,-2932,19976,401,-404,112,79,73
28.30,1018,-3788,-2936,20000,411,-490,32,79,73
28.32,1019,-3712,-3036,20088,391,-558,-36,79,73
28.34,1022,-3596,-2932,20064,480,-556,-50,79,73
28.36,1012,-3552,-2916,20000,444,-424,42,79,73
28.38,1025,-3552,-2860,20132,431,-281,112,79,73
28.40,1012,-3596,-3048,20052,367,-277,168,79,73
28.42,1031,-3768,-3104,20128,407,-298,108,79,73
28.44,1031,-3816,-2920,19976,440,-399,75,79,73
28.46,1030,-3732,-2836,20088,415,-487,-5,79,73
28.48,1020,-3616,-2948,20020,419,-528,-7,79,73
28.50,1017,-3600,-2984,20088,404,-459,1,79,73
28.52,1025,-3704,-2968,20036,406,-459,16,79,73
28.54,1013,-3616,-2912,20100,438,-507,-24,79,73
28.56,1009,-3668,-2892,20072,417,-473,26,79,73
28.58,1008,-3672,-2932,19944,393,-486,3,79,73
28.60,1028,-3632,-2976,20020,415,-505,3,79,73
28.62,1017,-3540,-3028,19972,399,-474,-17,79,73
28.64,1012,-3520,-3032,19960,430,-451,7,79,73
28.66,1024,-3656,-2920,20012,432,-469,8,79,73
28.68,1020,-3564,-2840,19920,442,-492,17,79,73
28.70,1026,-3644,-2928,19976,397,-553,-37,79,73
28.72,1017,-3720,-2992,20028,405,-520,-39,79,73
28.74,1013,-3656,-2988,19860,400,-503,-7,79,73
28.76,1024,-3568,-2996,19988,390,-444,11,79,73
28.78,1018,-3652,-2956,20008,392,-443,34,79,73
28.80,1026,-3608,-2976,20080,389,-436,80,79,73
28.82,1010,-3720,-3008,19996,390,-383,82,79,73
28.84,1030,-3692,-2964,20084,374,-445,42,79,73
28.86,1021,-3620,-2908,20168,447,-477,-10,79,73
28.88,1023,-3808,-3068,19916,345,-561,-25,79,73
28.90,1020,-3660,-3160,20036,508,-615,-55,79,73
28.92,1016,-3600,-2964,20060,442,-482,-64,79,73
28.94,1022,-3536,-2876,19944,458,-355,57,79,73
28.96,1038,-3580,-2864,19972,393,-299,112,79,73
28.98,1029,-3436,-3008,20204,362,-331,109,79,73
29.00,1010,-3716,-3068,19988,366,-330,84,79,73
29.02,1023,-3712,-2992,19844,438,-336,25,79,73
29.04,1015,-3720,-3052,20000,462,-434,-20,79,73
29.06,1030,-3668,-2944,20004,449,-465,-21,79,73
29.08,1021,-3516,-3036,20028,457,-501,37,79,73
29.10,1028,-3444,-2828,20076,460,-369,113,79,73
29.12,1017,-3564,-3016,20164,414,-317,84,79,73
29.14,1014,-3656,-3004,19928,418,-298,128,79,73
29.16,1021,-3808,-3036,19992,432,-325,123,79,73
29.18,1015,-3788,-2888,19896,468,-405,112,79,73
29.20,1013,-3700,-2936,20008,427,-361,115,79,73
29.22,1010,-3644,-3084,19864,369,-387,132,79,73
29.24,1028,-3768,-3080,19916,451,-409,70,79,73
29.26,1015,-3692,-3024,20080,422,-458,36,79,73
29.28,1030,-3712,-2920,20032,474,-414,13,79,73
29.30,1026,-3652,-3008,19916,460,-433,0,79,73
29.32,1022,-3656,-2932,19892,445,-396,-25,79,73
29.34,1027,-3652,-3044,20056,446,-436,13,79,73
29.36,1017,-3648,-2912,19844,456,-396,28,79,73
29.38,1024,-3644,-2924,19904,458,-319,97,79,73
29.40,1021,-3764,-2876,19972,444,-281,100,79,73
29.42,1019,-3604,-2952,19960,443,-274,150,79,73
29.44,1023,-3696,-2912,19944,351,-287,105,79,73
29.46,1013,-3880,-2940,20244,412,-513,13,79,73
29.48,1006,-3804,-2992,19980,410,-590,-52,79,73
29.50,1003,-3656,-2992,20092,446,-589,-54,79,73
29.52,992,-3492,-2936,19868,451,-508,56,79,73
29.54,999,-3340,-3060,20092,402,-288,149,79,73
29.56,1013,-3704,-3008,20152,348,-223,150,79,73
29.58,1029,-3816,-2968,19952,377,-349,103,79,73
29.60,1024,-3916,-2848,19880,392,-425,17,79,73
29.62,1017,-3752,-3004,19928,428,-498,27,79,73
29.64,1014,-3608,-2900,20020,403,-502,6,79,73
29.66,1016,-3740,-2888,19900,389,-471,39,79,73
29.68,1013,-3632,-3020,19956,362,-457,19,79,73
29.70,1023,-3868,-3092,19960,416,-534,4,79,73
29.72,1020,-3672,-2972,19908,428,-539,-6,79,73
29.74,1015,-3640,-2884,20000,426,-479,7,79,73
29.76,1014,-3512,-2948,19904,436,-477,23,79,73
29.78,1018,-3584,-2996,20032,411,-419,40,79,73
29.80,1021,-3620,-2968,20028,418,-421,72,79,73
29.82,1029,-3712,-2856,20020,464,-393,45,79,73
29.84,1022,-3764,-2880,20044,417,-465,64,79,73
29.86,1022,-3624,-2948,19952,401,-466,25,79,73
29.88,1024,-3584,-2912,20012,430,-454,19,79,73
29.90,1010,-3660,-2988,20000,411,-430,33,79,73
29.92,1024,-3756,-2976,20040,407,-411,10,79,73
29.94,1012,-3580,-2868,19892,448,-418,15,79,73
29.96,1013,-3608,-2964,20004,425,-439,25,79,73
29.98,1013,-3700,-2916,20004,438,-459,42,79,73
30.00,1034,-3692,-3000,19972,403,-431,28,79,73
30.02,1010,-3804,-3012,19976,432,-440,33,79,73
30.04,1009,-3420,-3032,20036,435,-361,62,79,73
30.06,1027,-3604,-2948,20028,420,-291,108,79,73
30.08,1011,-3744,-2952,20152,423,-417,63,79,73
30.10,1018,-3700,-2944,20000,426,-420,30,79,73
30.12,1009,-3592,-2976,19876,414,-431,32,79,73
30.14,1008,-3668,-2928,20052,450,-373,65,79,73
30.16,1013,-3592,-3036,20076,408,-292,94,79,73
30.18,1009,-3808,-2968,20076,403,-320,55,79,73
30.20,1010,-3868,-2948,19928,419,-387,32,79,73
30.22,1023,-3708,-2988,19988,422,-454,29,79,73
30.24,1017,-3568,-3040,19988,433,-484,16,79,73
30.26,1021,-3532,-2988,20084,431,-340,45,79,73
30.28,1014,-3744,-2908,20052,416,-316,78,79,73
30.30,1023,-3812,-2944,19820,424,-411,32,79,73
30.32,1028,-3780,-2860,19980,425,-480,-13,79,73
30.34,1021,-3692,-2976,20028,430,-519,15,79,73
30.36,1012,-3672,-3036,20100,443,-471,13,79,73
30.38,1017,-3632,-2880,19980,420,-399,45,79,73
30.40,1008,-3888,-2856,19900,414,-416,30,79,73
30.42,1015,-3652,-3016,19828,441,-413,54,79,73
30.44,1012,-3764,-2940,20048,442,-415,35,79,73
30.46,1021,-3680,-2960,20136,438,-409,39,79,73
30.48,1027,-3648,-2928,19920,395,-408,33,79,73
30.50,1019,-3760,-3008,19932,394,-433,46,79,73
30.52,1028,-3712,-2980,20056,403,-458,12,79,73
30.54,1036,-3744,-3008,19936,436,-513,-50,79,73
30.56,1015,-3680,-2968,20004,427,-457,-11,79,73
30.58,1026,-3708,-2944,20064,440,-452,13,79,73
30.60,1018,-3664,-2944,20116,420,-460,23,79,73
30.62,1008,-3832,-2904,20004,382,-483,37,79,73
30.64,1014,-3640,-2824,19900,386,-529,76,79,73
30.66,1029,-3836,-3056,19992,401,-554,-18,79,73
30.68,1020,-3556,-3124,20044,418,-570,-47,79,73
30.70,1024,-3676,-3024,20076,421,-506,-22,79,73
30.72,1024,-3660,-2916,20032,414,-481,5,79,73
30.74,1010,-3724,-2968,20092,379,-448,69,79,73
30.76,1010,-3696,-2928,20020,374,-494,18,79,73
30.78,1021,-3600,-3120,19796,418,-514,1,79,73
30.80,1009,-3532,-2976,19900,418,-477,10,79,73
30.82,1018,-3724,-2952,20052,439,-418,29,79,73
30.84,1032,-3580,-2968,20044,411,-423,34,79,73
30.86,1028,-3664,-2868,19956,357,-394,63,79,73
30.88,1012,-3632,-2936,19900,385,-475,53,79,73
30.90,1026,-3700,-2964,19996,394,-505,27,79,73
30.92,1014,-3624,-3048,19972,445,-509,-18,79,73
30.94,1008,-3608,-3016,19888,444,-468,-7,79,73
30.96,1026,-3600,-2960,20228,435,-489,-24,79,73
30.98,1014,-3692,-2972,20100,405,-492,3,79,73
31.00,1018,-3648,-3060,19984,391,-495,6,79,73
31.02,1018,-3616,-3024,19952,440,-482,12,79,73
31.04,1026,-3532,-2904,20112,447,-424,52,79,73
31.06,1019,-3656,-2880,20040,398,-424,73,79,73
31.08,1025,-3648,-2888,20136,398,-422,59,79,73
31.10,1032,-3552,-2940,19908,409,-420,65,79,73
31.12,1016,-3700,-3076,20040,444,-356,70,79,73
31.14,1027,-3732,-2932,20080,430,-355,84,79,73
31.16,1016,-3776,-2984,20116,411,-383,40,79,73
31.18,1018,-3700,-2964,19884,428,-439,13,79,73
31.20,1033,-3672,-2872,20060,435,-446,54,63,71
31.22,1016,-3660,-3068,19968,424,-427,29,63,71
31.24,1026,-3668,-3012,20128,447,-436,47,63,71
31.26,1011,-3584,-2940,20020,467,-299,58,63,71
31.28,1012,-3720,-2976,19984,432,-310,91,63,71
31.30,1029,-3728,-2948,19984,457,-319,85,63,71
31.32,1010,-3864,-2960,20080,405,-427,69,63,71
31.34,1024,-3616,-2824,20000,430,-470,66,63,71
31.36,1024,-3520,-2996,20036,390,-366,116,63,71
31.38,1016,-3692,-2892,20008,367,-336,147,63,71
31.40,1021,-3652,-3088,19988,415,-286,121,63,71
31.42,1018,-3772,-2944,19908,469,-271,107,63,71
31.44,1008,-3744,-2996,20064,467,-349,53,63,71
31.46,1019,-3784,-2800,19944,459,-404,17,63,71
31.48,1013,-3700,-2872,19960,433,-463,5,63,71
31.50,1027,-3612,-2892,19920,419,-430,10,63,71
31.52,1013,-3800,-2996,20072,427,-493,-15,63,71
31.54,1011,-3732,-2824,20020,436,-494,-41,63,71
31.56,1023,-3636,-3040,19932,427,-520,-52,63,71
31.58,1030,-3728,-2868,20024,439,-529,26,63,71
31.60,1024,-3684,-2896,19980,395,-495,20,63,71
31.62,1030,-3716,-3000,19936,389,-431,43,63,71
31.64,1013,-3752,-3000,19992,426,-430,44,63,71
31.66,1017,-3676,-2984,20044,397,-366,76,63,71
31.68,1028,-3796,-2904,20008,438,-428,35,63,71
31.70,1022,-3632,-2892,20016,424,-393,45,63,71
31.72,1013,-3664,-3000,20004,398,-421,73,63,71
31.74,1021,-3680,-2884,20088,411,-451,30,63,71
31.76,1027,-3708,-2888,20076,392,-528,16,63,71
31.78,1012,-3604,-2996,19988,444,-416,28,63,71
31.80,1013,-3692,-2936,19784,416,-335,68,63,71
31.82,1016,-3664,-2952,20068,426,-387,79,63,71
31.84,1012,-3824,-2956,20056,395,-417,51,63,71
31.86,1021,-3788,-2904,20012,399,-442,44,63,71
31.88,1028,-3660,-2868,20056,398,-467,49,63,71
31.90,1030,-3692,-3036,19984,440,-528,13,63,71
31.92,1011,-3776,-3060,20028,417,-486,-55,63,71
31.94,1017,-3728,-3028,19892,451,-461,-25,63,71
31.96,1020,-3708,-2820,19912,402,-412,37,63,71
31.98,1017,-3776,-2872,20132,388,-426,39,63,71
32.00,1039,-3684,-3084,20056,370,-533,4,63,71
32.02,1027,-3752,-3100,19836,416,-522,-14,63,71
32.04,1024,-3676,-2920,19832,428,-468,15,63,71
32.06,1020,-3580,-2980,19960,423,-368,83,63,71
32.08,1012,-3740,-2972,20128,382,-349,92,63,71
32.10,1009,-3720,-3016,19844,393,-371,83,63,71
32.12,1011,-3888,-2932,19952,378,-424,38,63,71
32.14,1019,-3760,-2892,19988,435,-540,1,63,71
32.16,1024,-3676,-2956,19980,429,-499,-25,63,71
32.18,1018,-3592,-2960,20020,424,-531,-35,63,71
32.20,1024,-3756,-2868,20028,402,-541,-19,63,71
32.22,1024,-3732,-2944,20084,372,-536,4,63,71
32.24,1018,-3740,-2964,20012,424,-583,-40,63,71
32.26,1025,-3536,-3000,19944,437,-573,-28,63,71
32.28,1021,-3556,-2992,20052,415,-439,-10,63,71
32.30,1015,-3660,-2912,20076,432,-453,34,63,71
32.32,1030,-3672,-2896,20004,415,-432,34,63,71
32.34,1018,-3776,-3108,19940,376,-462,8,63,71
32.36,1011,-3692,-3036,20000,442,-476,19,63,71
32.38,1018,-3540,-2896,20044,446,-420,40,63,71
32.40,1027,-3504,-2944,19952,418,-334,81,63,71
32.42,1032,-3612,-2980,20060,443,-258,88,63,71
32.44,1027,-3792,-2988,19988,426,-321,69,63,71
32.46,1006,-3680,-3020,20172,450,-389,57,63,71
32.48,1025,-3572,-2900,19840,413,-414,48,63,71
32.50,1011,-3756,-3036,19992,414,-393,29,63,71
32.52,1014,-3652,-3048,20000,452,-427,16,63,71
32.54,1007,-3716,-2988,20136,447,-399,8,63,71
32.56,1004,-3832,-2956,19908,415,-476,-31,63,71
32.58,1001,-3704,-2916,19904,457,-480,15,63,71
32.60,1017,-3608,-3048,19952,387,-444,38,63,71
32.62,1007,-3592,-3044,19896,410,-383,54,63,71
32.64,1002,-3708,-3068,19872,440,-375,52,63,71
32.66,1023,-3720,-2996,20060,418,-386,38,63,71
32.68,1004,-3832,-3000,19844,402,-489,42,63,71
32.70,1015,-3652,-2904,19984,406,-476,67,63,71
32.72,1018,-3632,-2968,20036,371,-413,102,63,71
32.74,1020,-3660,-3000,19948,395,-353,76,63,71
32.76,1020,-3820,-3040,19964,397,-428,71,63,71
32.78,994,-3744,-2960,19768,414,-486,20,63,71
32.80,1012,-3648,-3016,20020,457,-496,12,63,71
32.82,1032,-3528,-2992,20020,405,-395,40,63,71
32.84,1020,-3676,-2904,20092,433,-363,96,63,71
32.86,1022,-3864,-2896,19904,404,-326,32,63,71
32.88,1009,-3984,-2956,19816,426,-502,-9,63,71
32.90,1027,-3684,-2976,20012,443,-605,-83,63,71
32.92,1014,-3664,-2972,20152,441,-586,-73,63,71
32.94,1029,-3608,-2948,20100,442,-412,-29,63,71
32.96,1013,-3708,-2992,19764,446,-402,27,63,71
32.98,1026,-3824,-2876,20080,382,-353,50,63,71
33.00,1016,-3816,-3036,19976,396,-446,40,63,71
33.02,1028,-3856,-2800,20104,399,-517,39,63,71
33.04,1007,-3712,-3048,20116,381,-583,29,63,71
33.06,1016,-3604,-3028,19964,380,-521,3,63,71
33.08,1027,-3632,-3044,19880,429,-437,35,63,71
33.10,1027,-3736,-2944,19992,433,-404,85,63,71
33.12,1011,-3720,-3008,20080,403,-456,30,63,71
33.14,1024,-3756,-2956,20060,394,-498,45,63,71
33.16,1012,-3640,-2792,19944,430,-526,16,63,71
33.18,1012,-3568,-2956,20072,434,-404,36,63,71
33.20,1026,-3632,-3008,19972,415,-281,72,63,71
33.22,1026,-3780,-3012,19904,392,-275,46,63,71
33.24,1026,-3812,-2952,19932,460,-407,27,63,71
33.26,1023,-3840,-2916,19876,427,-453,14,63,71
33.28,1022,-3636,-3000,20096,453,-518,38,63,71
33.30,1015,-3440,-2932,20020,422,-420,21,63,71
33.32,1008,-3724,-2944,19888,405,-350,39,63,71
33.34,1006,-3844,-3004,20112,432,-396,73,63,71
33.36,1019,-3756,-2932,19980,425,-469,33,63,71
33.38,1021,-3596,-2984,19988,420,-519,35,63,71
33.40,1010,-3660,-2920,20132,386,-437,61,63,71
33.42,1006,-3484,-2908,20136,401,-375,114,63,71
33.44,1026,-3668,-2924,19932,405,-316,80,63,71
33.46,1014,-3720,-3084,19936,439,-350,12,63,71
33.48,1013,-3828,-2872,20024,483,-393,-2,63,71
33.50,1009,-3716,-2880,19928,492,-464,-15,63,71
33.52,1011,-3660,-2836,20064,442,-492,-19,63,71
33.54,1014,-3664,-2900,19964,402,-441,-3,63,71
33.56,1014,-3740,-2916,19972,418,-472,22,63,71
33.58,1019,-3720,-2864,19872,430,-481,21,63,71
33.60,1018,-3708,-2948,20052,455,-435,46,63,71
33.62,1010,-3744,-2928,20044,402,-375,86,63,71
33.64,1017,-3716,-2996,19972,425,-401,96,63,71
33.66,1012,-3776,-2912,19980,392,-402,46,63,71
33.68,1027,-3692,-3012,19944,395,-468,1,63,71
33.70,1024,-3660,-2972,19972,455,-469,-22,63,71
33.72,1024,-3600,-2996,20056,454,-477,-15,63,71
33.74,1014,-3592,-2904,20064,446,-382,40,63,71
33.76,1026,-3660,-2856,20012,412,-367,79,63,71
33.78,1035,-3740,-2892,20044,401,-429,81,63,71
33.80,1030,-3756,-3040,19944,379,-449,16,63,71
33.82,1024,-3684,-3044,20008,440,-397,-7,63,71
33.84,1010,-3776,-2988,19948,457,-398,-11,63,71
33.86,1018,-3788,-2920,19936,431,-425,16,63,71
33.88,1022,-3840,-2976,20072,437,-599,7,63,71
33.90,1027,-3680,-2856,19892,400,-631,8,63,71
33.92,1015,-3640,-2952,20120,371,-595,30,63,71
33.94,1015,-3664,-2992,20152,410,-609,27,63,71
33.96,1025,-3740,-2956,19916,424,-521,50,63,71
33.98,1013,-3812,-2892,20004,388,-537,54,63,71
34.00,1025,-3572,-2960,19924,420,-515,141,63,71
34.02,1010,-3484,-2944,19848,389,-380,165,63,71
34.04,1015,-3416,-3132,19912,489,-219,217,63,71
34.06,1008,-3580,-2928,20052,449,-49,198,63,71
34.08,1012,-3868,-3044,20076,460,-176,125,63,71
34.10,1014,-3716,-2848,19916,479,-306,58,63,71
34.12,1017,-3928,-3016,19992,505,-358,-65,63,71
34.14,1025,-3588,-3024,20040,583,-384,-92,63,71
34.16,1008,-3708,-2948,19968,514,-307,-59,63,71
34.18,1016,-3528,-2844,19984,577,-261,-28,63,71
34.20,1014,-3864,-2900,19888,482,-226,0,63,71
34.22,1030,-3664,-2880,20048,518,-320,108,63,71
34.24,1016,-3856,-2932,20188,400,-194,166,63,71
34.26,1020,-3864,-2860,20064,381,-302,182,63,71
34.28,1006,-3752,-3112,19776,323,-299,223,63,71
34.30,1023,-3680,-2948,20020,363,-133,226,63,71
34.32,1028,-3520,-2900,20120,481,-86,305,63,71
34.34,1012,-3768,-2844,19952,381,-59,331,63,71
34.36,1014,-3992,-2724,19948,343,-31,280,63,71
34.38,1031,-4156,-2988,19912,409,-444,172,63,71
34.40,1013,-3996,-2840,20052,412,-573,113,63,71
34.42,1023,-3780,-3116,19776,449,-501,-102,63,71
34.44,1029,-3812,-3032,20016,497,-475,-63,63,71
34.46,1025,-3688,-2856,20000,515,-349,5,63,71
34.48,1028,-3648,-2936,19928,445,-171,69,63,71
34.50,1023,-3948,-2776,20016,360,-255,68,63,71
34.52,1016,-4016,-2992,19900,429,-411,54,63,71
34.54,1023,-3968,-2808,20036,428,-460,-4,63,71
34.56,1020,-3772,-2952,19992,415,-469,6,63,71
34.58,1013,-3876,-2796,20060,436,-536,22,63,71
34.60,1015,-3776,-2920,19988,425,-495,33,63,71
34.62,1021,-3740,-2968,19892,422,-456,24,63,71
34.64,1014,-3800,-2936,19980,433,-438,37,63,71
34.66,1024,-3872,-2900,19880,420,-404,36,63,71
34.68,1030,-3824,-2860,19872,434,-411,7,63,71
34.70,1024,-3904,-2840,20068,414,-459,-3,63,71
34.72,1019,-3756,-2964,20092,442,-484,-10,63,71
34.74,1024,-3788,-2936,20080,459,-455,19,63,71
34.76,1012,-3824,-2852,20056,406,-350,62,63,71
34.78,1016,-3952,-2888,19916,368,-411,75,63,71
34.80,1020,-4004,-2888,19816,376,-569,31,63,71
34.82,1009,-3772,-3036,19880,389,-627,-1,63,71
34.84,1031,-3652,-2956,19868,435,-530,-14,63,71
34.86,1009,-3688,-2988,20108,436,-416,-8,63,71
34.88,1018,-3936,-3052,20020,423,-422,-26,63,71
34.90,1017,-4024,-2944,19900,412,-545,-81,63,71
34.92,1012,-3852,-2852,19868,420,-602,-42,63,71
34.94,1007,-3724,-2848,20012,394,-529,7,63,71
34.96,1022,-3616,-2980,19988,403,-399,13,63,71
34.98,1027,-3736,-2944,19920,417,-433,22,63,71
35.00,1023,-3944,-2960,20020,425,-400,-11,63,71
35.02,1022,-3852,-2988,19916,431,-436,18,63,71
35.04,1021,-3844,-2948,20044,431,-482,14,63,71
35.06,1014,-3640,-2916,19956,426,-436,70,63,71
35.08,1020,-3736,-2968,20008,390,-370,68,63,71
35.10,1009,-3932,-2996,19912,395,-423,45,63,71
35.12,1030,-3892,-2996,19884,451,-442,45,63,71
35.14,1017,-3944,-3008,20004,435,-399,46,63,71
35.16,1020,-3784,-2892,19968,459,-406,73,63,71
35.18,1028,-3764,-2876,19928,394,-312,102,63,71
35.20,1014,-3936,-3004,19988,378,-373,96,63,71
35.22,1012,-3892,-2972,20036,447,-347,65,63,71
35.24,1008,-3800,-2912,20052,446,-308,79,63,71
35.26,1017,-3764,-2836,20088,444,-273,126,63,71
35.28,1014,-3844,-2884,20008,398,-278,127,63,71
35.30,1016,-3804,-2956,20148,420,-336,86,63,71
35.32,1019,-3964,-2960,19960,425,-432,40,63,71
35.34,1013,-3736,-2924,20092,432,-509,-22,63,71
35.36,1029,-3756,-2876,19932,431,-534,-71,63,71
35.38,1031,-3744,-3000,20012,422,-473,-58,63,71
35.40,1013,-3772,-2868,20040,437,-453,15,63,71
35.42,1026,-3892,-2784,19944,387,-389,70,63,71
35.44,1012,-4008,-2928,19924,410,-456,59,63,71
35.46,1016,-3920,-2956,20064,400,-502,31,63,71
35.48,1025,-3788,-2828,20016,426,-468,62,63,71
35.50,1022,-3712,-2952,20104,405,-417,63,63,71
35.52,1018,-3796,-2948,19952,388,-366,85,63,71
35.54,1026,-3900,-2964,19900,406,-424,68,63,71
35.56,1025,-3788,-2896,20012,416,-456,32,63,71
35.58,1015,-3944,-2960,19964,443,-449,33,63,71
35.60,1018,-3716,-3044,20016,431,-433,20,63,71
35.62,1013,-3896,-2864,20056,411,-453,6,63,71
35.64,1010,-3848,-2796,19868,427,-443,21,63,71
35.66,1022,-3864,-2912,19936,403,-441,42,63,71
35.68,1031,-3808,-3020,19936,448,-412,51,63,71
35.70,1014,-3760,-2972,19936,434,-344,67,63,71
35.72,1012,-3944,-2984,20052,421,-372,47,63,71
35.74,1018,-3900,-2888,20096,417,-443,5,63,71
35.76,1011,-3756,-2932,19912,426,-405,28,63,71
35.78,1020,-3872,-2840,20024,439,-372,41,63,71
35.80,1019,-3756,-2960,19996,436,-370,43,63,71
35.82,1013,-3840,-2872,19992,422,-375,31,63,71
35.84,1024,-3888,-2912,19844,468,-438,-3,63,71
35.86,1012,-3844,-2904,20060,445,-446,-20,63,71
35.88,1016,-3780,-2868,20080,447,-406,41,63,71
35.90,1025,-3892,-2888,19992,424,-411,23,63,71
35.92,1012,-3792,-2956,20028,418,-356,42,63,71
35.94,1032,-4024,-2892,20000,412,-402,29,63,71
35.96,1025,-4176,-2800,20100,352,-650,17,63,71
35.98,1024,-4040,-2900,19800,397,-805,-26,63,71
36.00,1016,-3964,-2876,19868,422,-662,-83,63,71
36.02,1022,-3608,-3008,19988,383,-614,1,63,71
36.04,1033,-3708,-2860,20052,442,-548,34,63,71
36.06,1004,-3728,-2976,20104,344,-505,74,63,71
36.08,1024,-4244,-2784,19848,323,-661,-8,63,71
36.10,1012,-3916,-2960,19844,454,-880,-29,63,71
36.12,1016,-3476,-3164,19884,430,-347,2,63,71
36.14,1019,-3604,-3056,20228,503,-319,15,63,71
36.16,1026,-3684,-2820,20248,512,-294,99,63,71
36.18,1016,-4128,-2792,20072,365,-203,17,63,71
36.20,1024,-4396,-2808,20060,429,-354,-39,63,71
36.22,1009,-4060,-2936,19904,476,-657,-62,63,71
36.24,1013,-4052,-2896,20096,385,-828,-134,63,71
36.26,996,-3860,-2944,20004,450,-994,-242,63,71
36.28,1024,-3484,-3004,20000,473,-920,-223,63,71
36.30,1021,-3448,-2740,20100,483,-665,-178,63,71
36.32,1020,-3500,-2892,20096,461,-640,-117,63,71
36.34,1015,-3736,-2932,20128,414,-547,-125,63,71
36.36,1009,-3720,-2980,19820,433,-664,-124,63,71
36.38,1020,-3768,-2888,19940,436,-718,-121,63,71
36.40,1028,-3740,-2924,20180,449,-733,-104,63,71
36.42,1011,-3728,-2752,20008,344,-979,-142,63,71
36.44,1019,-3808,-2764,20076,335,-1137,-216,63,71
36.46,1020,-3848,-2924,19864,313,-1420,-304,63,71
36.48,1009,-3540,-3060,19716,380,-1476,-361,63,71
36.50,1009,-3212,-3028,19936,353,-1200,-296,63,71
36.52,1015,-3244,-3064,20092,489,-1004,-204,63,71
36.54,1022,-2856,-2824,20008,467,-648,-22,63,71
36.56,1008,-3212,-3004,20224,367,-443,3,63,71
36.58,1015,-3320,-2968,20152,490,-408,106,63,71
36.60,1023,-3352,-3000,20040,451,-87,191,63,71
36.62,1012,-3484,-3024,19972,479,-21,130,63,71
36.64,1010,-3480,-2956,20132,522,-198,108,63,71
36.66,1016,-3528,-2804,20072,470,-132,64,63,71
36.68,1026,-3712,-2888,20152,467,-279,84,63,71
36.70,1016,-3604,-2980,19984,489,-396,-5,63,71
36.72,1024,-3344,-3108,20152,493,-367,-59,63,71
36.74,1018,-3300,-3024,20020,523,-213,-1,63,71
36.76,1020,-3532,-3000,20204,503,-234,8,63,71
36.78,1020,-3660,-2908,20008,413,-377,-5,63,71
36.80,1008,-3844,-2880,19964,422,-548,-67,63,71
36.82,1025,-3700,-2952,20144,444,-818,-116,63,71
36.84,1026,-3404,-2916,20088,514,-790,-166,63,71
36.86,1024,-3556,-2856,19972,471,-802,-162,63,71
36.88,1014,-3284,-2884,19948,493,-709,-55,63,71
36.90,1022,-3516,-2984,19856,419,-831,-41,63,71
36.92,1009,-3184,-2980,20128,490,-548,39,63,71
36.94,1006,-3480,-2888,20164,401,-412,86,63,71
36.96,1021,-3436,-2924,20028,439,-457,104,63,71
36.98,1022,-3460,-2904,19972,424,-366,157,63,71
37.00,1031,-3468,-2996,20044,449,-349,155,63,71
37.02,1027,-3572,-2880,20144,404,-382,159,63,71
37.04,1014,-3600,-2844,20156,355,-452,183,63,71
37.06,1026,-3388,-2948,20240,328,-457,110,63,71
37.08,1009,-3332,-2948,20052,254,-434,243,63,71
37.10,1014,-3240,-3156,20048,369,-298,165,63,71
37.12,1015,-3272,-2768,20004,450,191,372,63,71
37.14,1026,-3420,-2576,20352,436,815,423,63,71
37.16,1026,-3532,-2760,19928,216,495,482,63,71
37.18,1034,-3428,-3056,20476,503,590,466,63,64
37.20,1014,-3600,-2996,20008,446,518,468,63,64
37.22,1014,-3388,-3252,20184,496,628,400,63,64
37.24,1015,-3708,-2932,19748,513,1100,313,63,64
37.26,1017,-4664,-3028,19776,512,437,112,63,64
37.28,1012,-4724,-2712,19836,806,-361,-215,63,64
37.30,1012,-4560,-2520,19836,679,-516,-567,63,64
37.32,1030,-4108,-3016,19864,810,-1001,-648,63,64
37.34,1029,-3492,-2828,20060,892,-1060,-502,63,64
37.36,1013,-3464,-2764,20300,748,-873,-365,63,64
37.38,1026,-3500,-2672,20324,513,-797,-56,63,64
37.40,1013,-3564,-2784,20144,339,-740,122,63,64
37.42,1031,-3892,-2900,20140,210,-667,206,63,64
37.44,999,-3936,-2968,19824,231,-686,313,63,64
37.46,1022,-3816,-2844,19892,217,-607,454,63,64
37.48,1033,-3936,-2724,19940,66,-859,498,63,64
37.50,1024,-3692,-2992,20060,124,-1305,637,63,64
37.52,1020,-3648,-2828,20700,-43,-1456,682,63,64
37.54,1003,-2968,-3036,20268,-55,-1558,1017,63,64
37.56,1025,-2548,-3144,20108,-8,-767,925,63,64
37.58,1012,-2884,-3132,19872,123,236,1122,63,64
37.60,1028,-2980,-3216,19868,721,1136,1045,63,64
37.62,1009,-3836,-2884,19580,622,1629,1143,63,64
37.64,1024,-4516,-2996,19948,630,980,940,63,64
37.66,1011,-4436,-2864,20156,624,342,799,63,64
37.68,1008,-4340,-2788,19800,484,169,660,63,64
37.70,1024,-4464,-2328,20144,620,780,370,63,64
37.72,1021,-5148,-2484,19684,-24,-410,395,63,64
37.74,1012,-4300,-2940,19920,464,-1391,104,63,64
37.76,1016,-4100,-2756,19816,249,-1322,-37,63,64
37.78,1015,-4052,-3008,19984,396,-1472,-166,63,64
37.80,1024,-3508,-2804,20180,350,-1408,-259,63,64
37.82,1008,-3336,-3044,20144,404,-1181,-311,63,64
37.84,1005,-3128,-2856,19884,498,-796,-179,63,64
37.86,1024,-3336,-2932,20044,493,-346,-170,63,64
37.88,1025,-3608,-3000,20204,480,-233,-100,63,64
37.90,1015,-4144,-2888,20092,412,-250,-107,63,64
37.92,1008,-4384,-2800,19948,403,-589,-218,63,64
37.94,1009,-4152,-2752,19788,424,-1035,-365,63,64
37.96,1019,-3956,-2892,20048,458,-1115,-481,63,64
37.98,1024,-3616,-2692,19976,490,-1037,-478,63,64
38.00,1018,-3632,-2704,20016,442,-1107,-415,63,64
38.02,1010,-3456,-2788,20020,464,-1207,-376,63,64
38.04,1013,-3428,-2672,20204,338,-1185,-300,63,64
38.06,1012,-3412,-2968,20080,356,-828,-313,63,64
38.08,1023,-3376,-3008,19856,365,-707,-272,63,64
38.10,1005,-3264,-2960,19996,502,-602,-219,63,64
38.12,1005,-3284,-2912,19984,488,-372,-146,63,64
38.14,1018,-3360,-3016,19972,554,-243,-122,63,64
38.16,1009,-3416,-2984,19956,518,-128,1,63,64
38.18,1030,-3848,-3004,19968,525,-142,-2,63,64
38.20,1010,-3988,-2864,20060,481,-347,-53,63,64
38.22,1012,-3732,-2968,20016,429,-474,-102,63,64
38.24,1029,-3748,-2872,20060,459,-606,-101,63,64
38.26,1009,-3516,-2840,19800,487,-656,-122,63,64
38.28,1015,-3508,-2796,20036,457,-572,-141,63,64
38.30,1025,-3472,-2840,20040,469,-611,-98,63,64
38.32,1007,-3488,-2736,20156,442,-432,-100,63,64
38.34,1011,-3512,-2976,19944,415,-426,-63,63,64
38.36,1006,-3444,-2900,19888,524,-359,-56,63,64
38.38,1017,-3504,-2860,20076,526,-299,-14,63,64
38.40,1027,-3536,-2848,20156,482,-254,34,63,64
38.42,1006,-3564,-2940,19964,460,-330,56,63,64
38.44,1009,-3476,-2928,19988,459,-266,55,63,64
38.46,1026,-3616,-2968,20020,402,-276,90,63,64
38.48,1022,-3508,-2856,20104,516,-225,112,63,64
38.50,1027,-3636,-2872,20088,431,-220,161,63,64
38.52,1021,-3572,-2772,19996,469,-215,157,63,64
38.54,1026,-3720,-2876,20012,410,-268,70,63,64
38.56,1024,-3796,-2792,19860,437,-408,9,63,64
38.58,1010,-3680,-2852,19996,522,-505,-61,63,64
38.60,1014,-3656,-2856,19996,518,-526,-107,63,64
38.62,1021,-3612,-2852,19992,533,-532,-133,63,64
38.64,1009,-3548,-2788,20076,499,-495,-96,63,64
38.66,1011,-3588,-2948,20112,450,-543,-37,63,64
38.68,1007,-3472,-2920,20004,420,-390,0,63,64
38.70,1022,-3596,-2896,19972,439,-302,35,63,64
38.72,1014,-3544,-2784,20068,461,-319,39,63,64
38.74,1009,-3732,-2816,20164,409,-376,-4,63,64
38.76,1027,-3752,-2832,20028,458,-465,-7,63,64
38.78,1012,-3524,-2888,19996,466,-480,-77,63,64
38.80,1033,-3580,-2824,20216,442,-500,-83,63,64
38.82,1008,-3608,-2904,20068,412,-636,-79,63,64
38.84,1009,-3372,-2936,20032,371,-474,1,63,64
38.86,1016,-3556,-2756,20016,422,-435,32,63,64
38.88,1028,-3504,-2856,19968,427,-457,30,63,64
38.90,1008,-3572,-2764,20040,417,-438,76,63,64
38.92,1012,-3568,-2668,20144,366,-442,70,63,64
38.94,1009,-3648,-2772,20036,372,-424,67,63,64
38.96,1007,-3580,-2768,20128,374,-573,20,63,64
38.98,1010,-3704,-2852,19936,353,-738,-46,63,64
39.00,1010,-3652,-2792,20036,445,-867,-212,63,64
39.02,1016,-3752,-2780,19924,376,-935,-241,63,64
39.04,1024,-3412,-2976,19980,521,-1013,-290,63,64
39.06,1019,-3248,-2812,20072,513,-853,-196,63,64
39.08,1018,-3304,-2768,20248,430,-598,-80,63,64
39.10,1026,-3336,-3020,20248,405,-564,1,63,64
39.12,1018,-3512,-2720,20072,422,-406,-59,63,64
39.14,1028,-3604,-3024,19992,392,-599,-119,63,64
39.16,1011,-3744,-2872,19992,480,-692,-188,63,64
39.18,1021,-3500,-2920,19932,532,-858,-258,63,64
39.20,1024,-3116,-2916,20172,559,-852,-148,63,64
39.22,1024,-3116,-2872,20188,484,-521,-82,63,64
39.24,1010,-3388,-2944,20184,369,-521,20,63,64
39.26,1031,-3368,-2792,20184,450,-385,31,63,64
39.28,1024,-3644,-2832,19996,430,-418,1,63,64
39.30,1028,-3532,-2928,20104,419,-560,-35,63,64
39.32,1017,-3440,-2788,19996,380,-812,19,63,64
39.34,1014,-3072,-2800,20072,375,-614,81,63,64
39.36,1012,-3300,-2768,20036,259,-408,58,63,64
39.38,1018,-3444,-3120,20140,367,-581,69,63,64
39.40,1008,-3424,-2792,19960,359,-411,65,63,64
39.42,1011,-3532,-2912,20016,461,-500,-18,63,64
39.44,1032,-3440,-2780,20068,445,-620,-10,63,64
39.46,1010,-3360,-2732,20208,450,-676,-67,63,64
39.48,1026,-3404,-2904,20208,350,-635,-55,63,64
39.50,1008,-3232,-2856,20096,410,-544,-16,63,64
39.52,1013,-3160,-2844,20116,336,-553,17,63,64
39.54,1016,-3188,-2952,19928,364,-490,57,63,64
39.56,1012,-3312,-2956,20016,341,-360,69,63,64
39.58,1014,-3368,-2968,20004,422,-401,50,63,64
39.60,1027,-3312,-2840,20144,388,-338,63,63,64
39.62,1037,-3352,-2932,20088,448,-361,128,63,64
39.64,1014,-3420,-2872,20288,392,-406,81,63,64
39.66,1023,-3312,-2848,20136,369,-420,68,63,64
39.68,1014,-3372,-2992,20052,391,-415,54,63,64
39.70,1032,-3472,-2928,19984,440,-482,17,63,64
39.72,1019,-3308,-2940,20144,450,-517,11,63,64
39.74,1015,-3232,-2852,20192,402,-421,60,63,64
39.76,1031,-3140,-2984,20012,369,-376,155,63,64
39.78,1015,-3336,-2824,20080,315,-258,199,63,64
39.80,1013,-3432,-2848,19992,394,-328,113,63,64
39.82,1008,-3476,-2832,20012,408,-398,26,63,64
39.84,1014,-3464,-2944,20000,434,-500,16,63,64
39.86,1026,-3424,-2884,20132,402,-497,49,63,64
39.88,1017,-3268,-2800,20156,376,-490,50,63,64
39.90,1021,-3276,-2948,20124,413,-460,47,63,64
39.92,1025,-3304,-2832,20064,430,-424,32,63,64
39.94,1016,-3384,-2856,19972,376,-412,29,63,64
39.96,1024,-3428,-2872,20004,425,-474,-14,63,64
39.98,1013,-3432,-2912,20140,408,-556,2,63,64
40.00,1021,-3224,-2884,20060,411,-477,34,63,64
40.02,1020,-3192,-2976,20296,399,-392,54,63,64
40.04,1012,-3244,-2832,20024,399,-320,112,63,64
40.06,1012,-3348,-2980,20060,357,-309,80,63,64
40.08,1026,-3640,-2892,20156,396,-483,3,63,64
40.10,1016,-3336,-2944,20136,405,-681,-57,63,64
40.12,1019,-3196,-2956,20300,438,-612,-11,63,64
40.14,1015,-3228,-2912,20248,378,-424,76,63,58
40.16,1025,-3304,-2904,20028,333,-335,133,63,58
40.18,1013,-3512,-2860,20056,356,-413,104,63,58
40.20,1015,-3288,-2900,20064,396,-517,54,63,58
40.22,1025,-3232,-2900,20160,445,-409,97,63,58
40.24,1009,-3492,-2856,20072,414,-378,64,63,58
40.26,1015,-3272,-2932,20092,402,-377,62,63,58
40.28,1005,-3416,-2852,19964,398,-388,58,63,58
40.30,1010,-3308,-2908,20108,415,-515,28,63,58
40.32,1009,-3316,-2896,20088,429,-495,-6,63,58
40.34,1024,-3340,-2908,19956,436,-536,-47,63,58
40.36,1013,-3436,-2836,20108,455,-624,-99,63,58
40.38,1027,-3224,-2900,20204,440,-627,-71,63,58
40.40,1017,-3164,-2900,20124,429,-495,8,63,58
40.42,1020,-3156,-2952,20208,393,-365,96,63,58
40.44,1011,-3264,-2872,20144,368,-303,149,63,58
40.46,1006,-3532,-3008,20116,359,-333,112,63,58
40.48,1022,-3504,-2864,20068,386,-502,74,63,58
40.50,1011,-3240,-2908,20048,377,-543,47,63,58
40.52,1011,-3372,-2948,20080,363,-532,50,63,58
40.54,1020,-3308,-2856,20208,384,-575,38,63,58
40.56,1027,-3164,-2916,20080,375,-516,13,63,58
40.58,1007,-3276,-2916,20168,406,-451,9,63,58
40.60,1005,-3404,-2912,20184,416,-485,11,63,58
40.62,1015,-3360,-3016,20056,441,-522,3,63,58
40.64,1014,-3228,-2852,20184,403,-489,-9,63,58
40.66,1010,-3268,-2968,20068,414,-436,42,63,58
40.68,996,-3340,-2892,20224,371,-443,39,63,58
40.70,1023,-3280,-2960,20104,432,-431,47,63,58
40.72,1014,-3292,-2900,20120,409,-419,39,63,58
40.74,1034,-3316,-2844,20072,410,-409,26,63,58
40.76,1008,-3268,-2936,19936,399,-414,16,63,58
40.78,1014,-3396,-2856,20112,446,-436,17,63,58
40.80,1026,-3328,-2884,20136,434,-460,19,63,58
40.82,1017,-3404,-2880,20052,425,-514,1,63,58
40.84,1020,-3200,-2956,20148,421,-489,-9,63,58
40.86,1006,-3180,-2864,20096,427,-498,20,63,58
40.88,1017,-3144,-2968,20028,424,-409,43,63,58
40.90,1016,-3360,-2940,20160,422,-319,53,63,58
40.92,1009,-3280,-2944,20052,407,-361,96,63,58
40.94,1025,-3272,-2916,19960,407,-353,73,63,58
40.96,1015,-3508,-2728,20044,422,-337,70,63,58
40.98,1024,-3496,-2980,19960,429,-472,-6,63,58
41.00,1004,-3400,-2936,20020,461,-499,-30,63,58
41.02,1013,-3268,-2948,19984,460,-522,-53,63,58
41.04,1020,-3132,-2880,20096,450,-458,16,63,58
41.06,1014,-3220,-2832,20180,456,-374,64,63,58
41.08,1016,-3300,-2828,20004,360,-367,78,63,58
41.10,1024,-3376,-2888,20240,410,-421,50,63,58
41.12,1024,-3564,-2900,20072,383,-601,25,63,58
41.14,1020,-3336,-3000,19916,437,-660,-44,63,58
41.16,1021,-3172,-3020,20160,420,-519,1,63,58
41.18,1025,-3172,-2928,20032,423,-449,28,63,58
41.20,1019,-3300,-2920,20116,438,-417,43,63,58
41.22,1022,-3176,-2960,20208,445,-317,45,63,58
41.24,1027,-3420,-2876,20072,395,-267,107,63,58
41.26,1014,-3324,-2860,20028,378,-362,86,63,58
41.28,1016,-3368,-3052,19996,392,-396,52,63,58
41.30,1024,-3388,-2952,19988,431,-466,-20,63,58
41.32,1027,-3324,-2892,20076,434,-516,-28,63,58
41.34,1018,-3356,-2928,20120,411,-511,-16,63,58
41.36,1024,-3232,-2900,20112,418,-491,-28,63,58
41.38,1010,-3192,-2916,20228,435,-508,-4,63,58
41.40,1029,-3228,-2900,20108,406,-451,53,63,58
41.42,1020,-3308,-2916,20052,398,-409,50,63,58
41.44,1013,-3320,-3084,20192,429,-435,45,63,58
41.46,1014,-3380,-2892,20012,394,-500,21,63,58
41.48,1021,-3280,-2936,19992,422,-539,32,63,58
41.50,1034,-3296,-2928,20076,421,-517,5,63,58
41.52,1014,-3192,-3000,20240,408,-465,9,63,58
41.54,1021,-3340,-3032,20128,468,-426,24,63,58
41.56,1018,-3276,-2904,19968,450,-429,-6,63,58
41.58,1020,-3356,-2868,20104,474,-426,-26,63,58
41.60,1025,-3220,-2880,20120,468,-430,18,63,58
41.62,1014,-3224,-2912,20188,443,-399,77,63,58
41.64,1016,-3336,-2852,20060,416,-381,67,63,58
41.66,1015,-3392,-2948,20188,392,-375,57,63,58
41.68,1016,-3464,-2976,19896,395,-406,-29,63,58
41.70,1009,-3420,-2868,20016,464,-483,-11,63,58
41.72,1012,-3292,-2848,20152,443,-508,-25,63,58
41.74,1014,-3140,-2968,20248,446,-430,23,63,58
41.76,1022,-3148,-2824,20184,430,-355,70,63,58
41.78,1014,-3132,-2932,20100,425,-299,108,63,58
41.80,1020,-3432,-2856,20132,357,-340,124,63,58
41.82,1014,-3468,-2976,20040,392,-458,56,63,58
41.84,1016,-3324,-2904,20072,420,-481,11,63,58
41.86,1014,-3188,-2956,20016,447,-445,3,63,58
41.88,1016,-3360,-2864,20112,425,-445,-21,63,58
41.90,1024,-3276,-2900,20104,442,-473,-31,63,58
41.92,1020,-3152,-2908,20128,416,-426,45,63,58
41.94,1014,-3200,-2896,20224,411,-331,120,63,58
41.96,1024,-3296,-2748,20140,342,-354,152,63,58
41.98,1019,-3328,-2932,19952,367,-401,91,63,58
42.00,1026,-3488,-2968,19964,397,-477,-26,63,58
42.02,1024,-3456,-3024,20156,435,-572,-57,63,58
42.04,1026,-3352,-2916,20116,438,-628,-86,63,58
42.06,1011,-3216,-2876,20012,410,-605,-24,63,58
42.08,1013,-3032,-2928,20032,393,-494,21,63,58
42.10,1018,-3180,-2956,20088,379,-368,44,63,58
42.12,1022,-3388,-2860,20240,386,-408,32,63,58
42.14,1012,-3504,-2848,19960,414,-482,6,63,58
42.16,1010,-3436,-2868,20136,413,-621,-55,63,58
42.18,1010,-3272,-2968,20264,448,-620,-49,63,58
42.20,1020,-3136,-2968,20080,410,-529,-26,63,58
42.22,1032,-3160,-2900,20264,402,-456,22,63,58
42.24,1024,-3236,-2880,20172,396,-391,42,63,58
42.26,1010,-3372,-2932,20104,420,-357,65,63,58
42.28,1024,-3380,-2796,20148,422,-430,29,63,58
42.30,1009,-3356,-2904,19924,400,-468,35,63,58
42.32,1024,-3144,-2992,20096,434,-402,68,63,58
42.34,1031,-3344,-2836,20060,453,-348,54,63,58
42.36,1023,-3184,-2824,20104,437,-363,56,63,58
42.38,1027,-3408,-2956,20068,447,-425,-4,63,58
42.40,1026,-3476,-2908,20156,424,-507,-40,63,58
42.42,1015,-3312,-2952,20124,434,-507,-15,63,58
42.44,1020,-3304,-2980,20000,449,-523,-8,63,58
42.46,1027,-3108,-2984,20224,414,-466,26,63,58
42.48,1018,-3212,-2876,20232,398,-313,105,63,58
42.50,1021,-3240,-2856,20096,376,-274,148,63,58
42.52,1012,-3492,-2940,20136,395,-397,117,63,58
42.54,1018,-3380,-2900,20128,369,-387,117,63,58
42.56,1025,-3240,-2848,20084,430,-394,100,63,58
42.58,1028,-3208,-2848,20128,392,-490,48,63,58
42.60,1020,-3280,-2856,20124,429,-546,-8,63,58
42.62,1024,-3256,-2944,20176,404,-503,-4,63,58
42.64,1013,-3320,-2972,20024,457,-502,-15,63,58
42.66,1020,-3180,-2928,20148,438,-470,-5,63,58
42.68,1021,-3124,-2932,20260,400,-460,31,63,58
42.70,1021,-3212,-2932,20028,406,-421,67,63,58
42.72,1025,-3344,-2944,20076,397,-407,51,63,58
42.74,1025,-3356,-2924,20044,447,-517,-15,63,58
42.76,1008,-3352,-2840,19988,425,-597,-35,63,58
42.78,1012,-3152,-3072,20040,428,-555,-38,63,58
42.80,1020,-3100,-2916,20144,456,-454,37,63,58
42.82,1016,-3188,-2988,20320,428,-371,43,63,58
42.84,1026,-3396,-2852,20072,453,-382,-3,63,58
42.86,1009,-3376,-2984,20004,436,-485,-17,63,58
42.88,1018,-3284,-2872,20032,424,-539,15,63,58
42.90,1011,-3224,-2984,20268,388,-506,48,63,58
42.92,1012,-3196,-2916,20252,387,-438,106,63,58
42.94,1024,-3412,-2892,20024,372,-422,69,63,58
42.96,1028,-3312,-2860,19948,365,-492,21,63,58
42.98,1017,-3284,-2892,20048,419,-557,36,63,58
43.00,1010,-3116,-2896,20132,392,-475,-17,63,58
43.02,1008,-3204,-2956,20044,415,-497,4,63,58
43.04,1023,-3248,-2904,20100,395,-454,44,63,58
43.06,1028,-3292,-2932,20160,462,-517,-36,63,58
43.08,1014,-3260,-2968,20016,403,-445,-11,63,58
43.10,1015,-3068,-2864,20048,502,-417,26,63,58
43.12,1024,-3020,-2960,20088,459,-257,71,62,62
43.14,1011,-3032,-2964,20120,431,-143,105,62,62
43.16,1013,-3416,-2828,20104,420,-250,96,62,62
43.18,992,-3480,-2768,20128,454,-446,12,62,62
43.20,1013,-3296,-2904,20016,435,-588,-30,62,62
43.22,1023,-3196,-2952,20236,438,-615,-73,62,62
43.24,1014,-3188,-2932,20100,448,-575,-75,62,62
43.26,1020,-3332,-2904,19988,411,-556,-64,62,62
43.28,1007,-3280,-2900,20080,413,-520,-70,62,62
43.30,1014,-3164,-2996,20144,445,-543,6,62,62
43.32,998,-3212,-2932,20408,350,-408,109,62,62
43.34,1020,-3228,-2988,20160,402,-363,80,62,62
43.36,1012,-3404,-2924,20136,296,-474,26,62,62
43.38,1010,-3280,-2900,20060,373,-637,-16,62,62
43.40,1007,-3136,-2968,20096,395,-558,-4,62,62
43.42,1019,-3204,-3028,20108,399,-512,-18,62,62
43.44,1018,-3128,-2928,20036,413,-455,15,62,62
43.46,1022,-3152,-2948,20028,392,-356,41,62,62
43.48,1023,-3328,-2980,20012,417,-460,21,62,62
43.50,1021,-3412,-3008,19764,455,-559,5,62,62
43.52,1007,-3196,-2992,20124,393,-498,-47,62,62
43.54,1028,-3148,-2832,20244,460,-582,-3,62,62
43.56,1020,-3064,-2992,20228,426,-400,49,62,62
43.58,1028,-3224,-3000,20236,386,-360,55,62,62
43.60,1029,-3284,-2980,20068,421,-412,85,62,62
43.62,1026,-3216,-2960,20052,392,-391,41,62,62
43.64,1021,-3232,-2888,20056,411,-474,40,62,62
43.66,1017,-3196,-2924,20188,437,-524,-5,62,62
43.68,1019,-3236,-2936,20096,415,-446,-27,62,62
43.70,1003,-3200,-2992,20148,468,-461,-6,62,62
43.72,1013,-3108,-3000,20124,418,-434,36,62,62
43.74,1028,-3160,-2952,20192,397,-363,126,62,62
43.76,1010,-3268,-2880,20084,358,-364,150,62,62
43.78,1006,-3328,-2864,20164,368,-405,118,62,62
43.80,1009,-3244,-2880,19996,369,-499,31,62,62
43.82,1012,-3316,-2884,20048,434,-602,-64,62,62
43.84,1026,-3236,-2936,20164,475,-645,-81,62,62
43.86,1018,-3096,-3000,20108,458,-603,-65,62,62
43.88,1013,-2844,-3028,20044,410,-403,35,62,62
43.90,1009,-3040,-2928,20240,390,-262,155,62,62
43.92,1012,-3368,-2912,20152,339,-362,106,62,62
43.94,1012,-3436,-2736,20004,344,-490,81,62,62
43.96,1024,-3144,-2976,19920,362,-596,0,62,62
43.98,1028,-3156,-2968,20188,454,-528,-36,62,62
44.00,1025,-3060,-2960,20216,363,-416,64,62,62
44.02,1009,-2996,-2900,20248,384,-305,71,62,62
44.04,1018,-3264,-2932,20048,381,-408,24,62,62
44.06,1025,-3272,-2968,19980,399,-391,11,62,62
44.08,1014,-3364,-2980,20024,404,-453,-43,62,62
44.10,1008,-3256,-2896,20092,428,-595,-7,62,62
44.12,1021,-3036,-2944,20120,391,-499,3,62,62
44.14,1008,-3060,-3020,20208,393,-475,43,62,62
44.16,1005,-3084,-2932,20120,438,-436,57,62,62
44.18,1018,-3232,-2956,20028,387,-373,52,62,62
44.20,1025,-3412,-2916,20060,447,-470,14,62,62
44.22,1025,-3204,-2900,20192,426,-517,-25,62,62
44.24,1024,-3224,-2964,20128,405,-482,-14,62,62
44.26,1003,-3112,-2988,20088,448,-462,-14,62,62
44.28,1012,-3132,-2944,20112,429,-448,5,62,62
44.30,1023,-3240,-2960,20140,438,-453,30,62,62
44.32,1026,-3236,-2916,20064,372,-450,19,62,62
44.34,1023,-3180,-2860,20224,399,-422,0,62,62
44.36,1021,-3136,-3068,20044,366,-490,12,62,62
44.38,1018,-3132,-2932,20188,413,-390,36,62,62
44.40,1013,-3164,-3052,20092,432,-452,19,62,62
44.42,1019,-3112,-2852,20060,431,-462,36,62,62
44.44,1023,-3264,-2936,20076,397,-478,47,62,62
44.46,1032,-3204,-2828,20076,432,-450,6,62,62
44.48,1025,-3224,-3000,20124,415,-417,-14,62,62
44.50,1028,-3180,-2988,20036,423,-479,8,62,62
44.52,1010,-3016,-2984,20244,437,-363,64,62,62
44.54,1012,-3248,-3012,20204,377,-387,40,62,62
44.56,1026,-3352,-2900,20148,441,-464,9,62,62
44.58,1007,-3316,-3068,20040,428,-487,-16,62,62
44.60,1021,-3216,-3020,20064,435,-515,-25,62,62
44.62,1015,-3076,-3008,20240,448,-462,21,62,62
44.64,1012,-3048,-3020,20200,408,-348,66,62,62
44.66,1030,-3208,-3032,20016,350,-289,80,62,62
44.68,1018,-3364,-2924,20036,385,-432,51,62,62
44.70,1022,-3392,-3056,19992,387,-569,-28,62,62
44.72,1025,-3208,-3036,20192,402,-578,-36,62,62
44.74,1034,-2848,-3084,20092,399,-470,42,62,62
44.76,988,-3076,-2936,20168,400,-318,114,62,62
44.78,1019,-3244,-2816,20064,378,-332,105,62,62
44.80,1028,-3372,-2920,20044,402,-374,56,62,62
44.82,1028,-3208,-2956,20008,408,-500,5,62,62
44.84,1012,-3188,-2900,20048,450,-614,-33,62,62
44.86,1016,-2964,-2908,20192,437,-549,-62,62,62
44.88,1018,-3036,-3004,20120,391,-487,-8,62,62
44.90,1010,-3180,-3020,20148,433,-421,-3,62,62
44.92,1009,-3144,-2964,20008,430,-415,5,62,62
44.94,1024,-3252,-3152,20100,453,-435,-46,62,62
44.96,1016,-3092,-2888,20032,488,-521,-58,62,62
44.98,1020,-3100,-2908,20200,430,-498,-19,62,62
45.00,1022,-3164,-2852,20188,404,-496,-11,62,62
45.02,1020,-3036,-3056,20132,418,-459,5,62,62
45.04,1013,-3172,-3012,20200,409,-438,10,62,62
45.06,1019,-3216,-2920,20200,421,-356,-20,62,62
45.08,1005,-3148,-3020,20032,441,-515,-14,62,62
45.10,1014,-3196,-2860,20324,465,-462,-4,62,62
45.12,1008,-3232,-3036,20120,425,-433,-40,62,62
45.14,1016,-3204,-3108,19992,484,-429,-72,62,62
45.16,1029,-3220,-3144,20156,480,-442,-54,62,62
45.18,1016,-3148,-3004,20120,570,-434,33,62,62
45.20,1008,-2984,-2784,20232,425,-330,116,62,62
45.22,1023,-2920,-2780,20176,392,-226,245,62,62
45.24,1008,-3172,-2884,20160,318,-107,259,62,62
45.26,1006,-3352,-2892,20088,403,-156,140,62,62
45.28,1030,-3392,-2960,19812,495,-194,-41,62,62
45.30,1023,-3476,-3184,19908,509,-415,-55,62,62
45.32,1013,-3196,-3032,20152,591,-497,-66,62,62
45.34,1024,-2972,-3060,20316,472,-383,28,62,62
45.36,997,-3008,-2932,20200,396,-230,133,62,62
45.38,1035,-3260,-2764,20072,385,-190,135,62,62
45.40,997,-3456,-2844,20080,381,-307,91,62,62
45.42,1012,-3468,-2912,20128,378,-416,48,62,62
45.44,1023,-3296,-2996,19924,444,-559,-4,62,62
45.46,1012,-3288,-2932,20044,447,-584,-16,62,62
45.48,1010,-3164,-2948,20292,457,-419,-13,62,62
45.50,1026,-3024,-3028,20128,484,-261,106,62,62
45.52,1008,-3140,-3000,20292,465,-240,122,62,62
45.54,1005,-3212,-2912,20368,422,-281,136,62,62
45.56,1008,-3496,-2912,20052,309,-321,107,62,62
45.58,1028,-3416,-3008,19984,397,-434,55,62,62
45.60,1009,-3272,-3012,20028,482,-505,-11,62,62
45.62,1005,-3248,-2920,20188,473,-408,53,62,62
45.64,1015,-3232,-2852,20308,405,-398,79,62,62
45.66,1020,-3164,-2748,20240,395,-417,102,62,62
45.68,1026,-3336,-2888,20088,376,-474,14,62,62
45.70,1022,-3340,-2944,19828,430,-550,-66,62,62
45.72,1016,-3344,-3044,19912,478,-674,-122,62,62
45.74,1026,-3156,-2956,20072,446,-643,-81,62,62
45.76,1015,-3052,-3048,20080,395,-538,17,62,62
45.78,1009,-3120,-2900,20308,355,-462,117,62,62
45.80,1014,-3096,-2816,20076,338,-439,106,62,62
45.82,1015,-3284,-2960,20012,348,-492,43,62,62
45.84,1012,-3308,-3064,20036,411,-541,-16,62,62
45.86,1014,-3392,-2956,19984,450,-540,-20,62,62
45.88,1025,-2996,-2960,20324,430,-488,28,62,62
45.90,1013,-3068,-2856,20204,396,-414,51,62,62
45.92,1015,-3224,-2912,20248,405,-409,-26,62,62
45.94,1013,-3324,-2976,20088,330,-516,52,62,62
45.96,1012,-3128,-2960,19924,420,-497,-16,62,62
45.98,1024,-3236,-3032,20108,389,-534,3,62,62
46.00,1026,-3076,-2972,20112,433,-452,49,62,62
46.02,1011,-3144,-2900,20096,420,-393,62,62,62
46.04,1023,-3244,-2912,20000,403,-384,18,62,62
46.06,1014,-3256,-3100,19932,401,-375,37,62,62
46.08,1021,-3292,-2964,20068,461,-418,52,62,62
46.10,1016,-3324,-2888,20008,456,-442,17,62,66
46.12,1027,-3232,-3040,20064,402,-422,-1,62,66
46.14,1018,-3140,-2832,20120,473,-478,-21,62,66
46.16,1007,-3228,-3084,20176,440,-498,-4,62,66
46.18,1014,-3164,-2936,20052,403,-399,42,62,66
46.20,1009,-3128,-3000,20156,412,-347,86,62,66
46.22,1016,-3032,-2920,20004,404,-294,131,62,66
46.24,1009,-3224,-2980,20272,399,-176,185,62,66
46.26,1005,-3452,-2880,20248,375,-278,102,62,66
46.28,1016,-3452,-2824,20028,439,-479,30,62,66
46.30,1010,-3336,-3028,19964,422,-578,-63,62,66
46.32,1015,-3264,-3008,20136,457,-654,-59,62,66
46.34,1012,-3108,-2952,20124,417,-631,-57,62,66
46.36,1014,-3216,-2868,20180,375,-639,1,62,66
46.38,1010,-3108,-2884,20016,333,-569,10,62,66
46.40,1018,-2992,-2912,20092,340,-464,117,62,66
46.42,1013,-3060,-2860,20244,362,-412,135,62,66
46.44,1021,-3200,-2948,19984,287,-366,222,62,66
46.46,1016,-3128,-3016,20136,291,-227,259,62,66
46.48,1024,-3080,-3124,20172,367,-55,350,62,66
46.50,1024,-3164,-2792,20416,211,-95,402,62,66
46.52,1021,-3276,-2892,20016,371,-159,319,62,66
46.54,1026,-3376,-2948,19916,349,-35,220,62,66
46.56,1022,-3440,-3064,20004,441,-195,140,62,66
46.58,1007,-3272,-3104,19956,514,-192,88,62,66
46.60,1006,-3216,-2988,20128,463,-174,194,62,66
46.62,1017,-3188,-2744,20224,399,-135,298,62,66
46.64,1009,-3164,-2948,20136,302,-194,375,62,66
46.66,1023,-3092,-3108,20032,377,-14,385,62,66
46.68,1007,-3408,-3040,20104,381,154,339,62,66
46.70,1024,-3692,-2960,19980,466,-81,166,62,66
46.72,1025,-3780,-2836,20016,441,-385,13,62,66
46.74,1026,-3708,-2948,20032,409,-653,-16,62,66
46.76,1021,-3404,-3108,19944,466,-677,-77,62,66
46.78,1026,-3124,-2984,20084,505,-526,-8,62,66
46.80,1009,-3172,-2896,20256,410,-338,141,62,66
46.82,1025,-3196,-2840,20088,345,-208,222,62,66
46.84,1017,-3648,-2920,19924,305,-240,245,62,66
46.86,1010,-3572,-3012,19840,370,-373,238,62,66
46.88,1015,-3256,-2976,19956,362,-411,216,62,66
46.90,1026,-3412,-2940,20116,399,-429,193,62,66
46.92,1015,-3328,-2992,20200,336,-453,195,62,66
46.94,1021,-3408,-2980,20176,272,-405,168,62,66
46.96,1022,-3324,-3036,20044,389,-443,93,62,66
46.98,1015,-3344,-3100,20024,475,-276,22,62,66
47.00,1018,-3480,-2920,19948,519,-272,-9,62,66
47.02,1018,-3632,-2824,20252,486,-415,-89,62,66
47.04,1025,-3384,-2936,20056,506,-542,-196,62,66
47.06,1018,-3352,-3048,20028,492,-559,-175,62,66
47.08,1007,-3416,-2952,20120,579,-533,-228,62,66
47.10,1020,-3268,-2988,20056,504,-430,-159,62,66
47.12,1028,-3320,-2952,20064,482,-430,-131,62,66
47.14,1010,-3516,-2920,20140,452,-533,-97,62,66
47.16,1020,-3492,-3016,20016,449,-522,-82,62,66
47.18,1018,-3544,-2956,19900,417,-548,-60,62,66
47.20,1013,-3320,-3028,19912,480,-591,-61,62,66
47.22,1010,-3168,-2872,20152,466,-463,56,62,66
47.24,1021,-3152,-3052,20092,386,-305,101,62,66
47.26,1006,-3612,-2992,20136,350,-179,168,62,66
47.28,1030,-3452,-2952,20012,397,-231,181,62,66
47.30,1024,-3628,-2772,19940,410,-277,152,62,66
47.32,1008,-3476,-2944,19924,387,-475,115,62,66
47.34,1015,-3496,-2988,20068,383,-421,162,62,66
47.36,1006,-3408,-3012,20036,370,-381,125,62,66
47.38,1008,-3276,-3040,20052,439,-288,278,62,66
47.40,1031,-3276,-2968,20040,382,-1,406,62,66
47.42,1014,-3356,-2852,20080,394,47,410,62,66
47.44,1020,-3516,-2960,19996,409,21,354,62,66
47.46,1012,-3544,-3044,20040,390,15,313,62,66
47.48,1024,-3760,-2976,20020,446,-183,208,62,66
47.50,1027,-3720,-2872,19992,429,-427,118,62,66
47.52,1009,-3552,-2968,20132,436,-484,12,62,66
47.54,1000,-3464,-2940,20092,419,-496,-16,62,66
47.56,1008,-3492,-2896,20096,407,-523,51,62,66
47.58,1024,-3544,-2912,20104,380,-464,108,62,66
47.60,1019,-3404,-2980,20012,395,-366,112,62,66
47.62,1039,-3484,-2988,20068,375,-342,110,62,66
47.64,1018,-3616,-2984,19908,454,-345,-8,62,66
47.66,1012,-3616,-2952,19928,489,-425,-76,62,66
47.68,1019,-3548,-2924,20064,517,-424,-148,62,66
47.70,1014,-3476,-2928,20160,492,-501,-170,62,66
47.72,1014,-3520,-3012,20180,449,-627,-322,62,66
47.74,1014,-3648,-3092,20052,523,-807,-444,62,66
47.76,1011,-3616,-3052,19892,576,-835,-643,62,66
47.78,1009,-3772,-3100,20132,515,-1135,-683,62,66
47.80,1015,-3548,-3040,19972,618,-1244,-610,62,66
47.82,1019,-3316,-2876,20120,449,-983,-411,62,66
47.84,1017,-3432,-2964,19988,329,-966,-236,62,66
47.86,1024,-3316,-2768,20048,363,-1063,-210,62,66
47.88,1015,-3196,-3000,19944,345,-971,-173,62,66
47.90,1016,-3272,-2836,19916,418,-756,-239,62,66
47.92,1022,-3316,-3100,20016,537,-874,-207,62,66
47.94,1017,-3004,-2932,20064,488,-633,-158,62,66
47.96,1021,-2992,-2920,20212,436,-478,-40,62,66
47.98,1012,-3252,-3028,20200,360,-485,-13,62,66
48.00,1004,-3064,-3100,19984,420,-306,70,62,66
48.02,1009,-3356,-2872,20092,456,-262,33,62,66
48.04,1010,-3384,-2940,20204,440,-483,-31,62,66
48.06,1015,-3484,-2972,19908,449,-590,-23,62,66
48.08,1027,-3284,-3052,20160,353,-695,-68,62,66
48.10,1025,-3100,-3000,20004,405,-640,-61,62,66
48.12,1021,-2932,-3016,20204,359,-421,101,62,66
48.14,1016,-3268,-2964,20132,455,-290,80,62,66
48.16,1024,-3268,-2936,20020,392,-340,92,62,66
48.18,1013,-3328,-2928,20128,394,-431,58,62,66
48.20,1013,-3244,-2940,20160,407,-487,60,62,66
48.22,1015,-3244,-2944,20144,398,-489,64,62,66
48.24,1017,-3156,-2900,20040,369,-423,127,62,66
48.26,1008,-3248,-3008,20212,350,-401,120,62,66
48.28,1022,-3192,-2964,20004,378,-309,151,62,66
48.30,1018,-3148,-3052,20104,372,-269,113,62,66
48.32,1009,-3180,-3000,20144,439,-289,105,62,66
48.34,1012,-3312,-3024,20296,416,-296,101,62,66
48.36,1010,-3432,-2884,20092,383,-310,73,62,66
48.38,1026,-3436,-2972,20208,410,-497,10,62,66
48.40,1008,-3360,-2944,20112,398,-498,13,62,66
48.42,1016,-3300,-2952,20108,370,-559,-20,62,66
48.44,1000,-3304,-2992,20016,425,-575,-16,62,66
48.46,1014,-3172,-3028,20036,423,-541,-14,62,66
48.48,1013,-3284,-2920,20216,405,-529,5,62,66
48.50,1024,-3216,-2952,20064,372,-494,49,62,66
48.52,1016,-3324,-2952,20152,356,-508,42,62,66
48.54,1007,-3296,-3072,20112,387,-552,19,62,66
48.56,1017,-3288,-3004,20016,380,-527,17,62,66
48.58,1016,-3216,-3040,20028,398,-450,40,62,66
48.60,1020,-3120,-2956,20180,378,-430,85,62,66
48.62,1018,-3116,-2960,20116,374,-367,82,62,66
48.64,1008,-3312,-2892,20124,393,-351,69,62,66
48.66,1023,-3420,-2948,20152,388,-422,11,62,66
48.68,1026,-3388,-2996,20028,400,-501,-9,62,66
48.70,1013,-3292,-3052,19948,422,-522,4,62,66
48.72,1019,-3216,-2960,20144,405,-563,-1,62,66
48.74,1014,-3252,-2900,20064,388,-557,-30,62,66
48.76,1015,-3196,-2952,20092,364,-537,12,62,66
48.78,1015,-3280,-3008,20020,380,-462,40,62,66
48.80,996,-3360,-2944,20072,365,-506,38,62,66
48.82,1014,-3324,-3012,20188,397,-580,-25,62,66
48.84,992,-3308,-3016,19952,437,-653,-60,62,66
48.86,1018,-3104,-2912,20160,410,-608,-63,62,66
48.88,1010,-3108,-3036,20284,391,-474,-69,62,66
48.90,1028,-3028,-3048,19896,376,-533,130,62,66
48.92,1023,-3204,-2980,19988,378,-528,40,62,66
48.94,1009,-3256,-2924,20068,400,-466,-31,62,66
48.96,1010,-3380,-3012,20080,392,-571,-89,62,66
48.98,1016,-3200,-3068,20016,444,-600,-148,62,66
49.00,1017,-3084,-3152,20036,471,-574,-94,62,66
49.02,1033,-3032,-3064,20076,465,-459,-4,62,66
49.04,1020,-3080,-2968,20116,431,-390,24,62,66
49.06,1012,-3284,-2956,20188,421,-446,-6,62,66
49.08,1009,-3396,-3060,20152,431,-538,-45,62,66
49.10,1002,-3220,-3052,20036,462,-589,-64,62,64
49.12,1024,-3044,-3124,20136,447,-543,-45,62,64
49.14,1000,-3084,-3004,20172,413,-469,33,62,64
49.16,1024,-3124,-3016,20168,415,-436,7,62,64
49.18,1028,-3196,-3024,20128,418,-416,25,62,64
49.20,1025,-3144,-2988,20032,439,-467,-29,62,64
49.22,1016,-3080,-2916,20168,469,-482,12,62,64
49.24,1024,-3232,-2828,20152,416,-491,-16,62,64
49.26,1024,-3056,-3036,20028,424,-523,-46,62,64
49.28,1012,-3240,-3000,20056,389,-525,-40,62,64
49.30,1010,-3152,-3160,19996,417,-524,1,62,64
49.32,1016,-2984,-3148,20156,431,-464,16,62,64
49.34,1028,-3096,-2924,20052,418,-399,51,62,64
49.36,1007,-2920,-3004,20084,428,-363,79,62,64
49.38,1022,-3156,-2984,20068,392,-313,82,62,64
49.40,1020,-3192,-2928,20120,430,-359,83,62,64
49.42,1024,-3184,-3036,20000,450,-397,38,62,64
49.44,1005,-3276,-3040,20184,390,-468,36,62,64
49.46,1025,-3152,-3116,20108,404,-432,51,62,64
49.48,1015,-3204,-3068,20048,382,-437,31,62,64
49.50,1022,-3084,-3128,20008,402,-407,34,62,64
49.52,1011,-3120,-3016,20208,420,-454,55,62,64
49.54,1012,-3216,-2972,20124,333,-455,69,62,64
49.56,1010,-3292,-3096,20008,395,-503,20,62,64
49.58,1031,-3104,-3012,19964,371,-594,1,62,64
49.60,1017,-3040,-2988,20152,448,-539,7,62,64
49.62,1026,-2940,-2976,20052,376,-517,-15,62,64
49.64,1012,-2944,-3296,20396,519,-584,45,62,64
49.66,1026,-3140,-2796,20072,429,-284,-13,62,64
49.68,1024,-3308,-3064,20120,446,-500,-41,62,64
49.70,1008,-3164,-3100,19968,438,-584,-28,62,64
49.72,1015,-3136,-3024,20164,423,-528,-44,62,64
49.74,1017,-3168,-3000,19988,438,-597,-25,62,64
49.76,1009,-2996,-3096,20008,431,-750,-43,62,64
49.78,1024,-3088,-3064,20040,414,-488,-58,62,64
49.80,1006,-3252,-2960,20144,418,-624,-55,62,64
49.82,1024,-3048,-2904,20180,419,-753,-105,62,64
49.84,1008,-3252,-3024,20140,391,-814,-128,62,64
49.86,1031,-2840,-3184,20088,445,-633,-46,62,64
49.88,1008,-2952,-3092,20252,427,-456,7,62,64
49.90,1015,-2932,-3032,20060,417,-423,62,62,64
49.92,1014,-3040,-3032,20164,404,-376,82,62,64
49.94,1018,-3032,-2912,20020,399,-368,88,62,64
49.96,1013,-2988,-3052,20192,385,-378,98,62,64
49.98,1014,-3180,-2896,19984,399,-471,69,62,64
50.00,1025,-3072,-2940,20168,391,-570,-17,62,64
50.02,1022,-3052,-3060,19956,462,-573,-76,62,64
50.04,995,-2976,-3036,20168,449,-499,-6,62,64
50.06,1014,-2920,-3088,20144,450,-360,11,62,64
50.08,1011,-2864,-2984,20156,413,-275,100,62,64
50.10,1009,-3120,-2928,20192,369,-382,122,62,64
50.12,1020,-3248,-2884,20008,394,-472,90,62,64
50.14,1012,-3200,-2976,20188,348,-504,22,62,64
50.16,1020,-2996,-3128,20076,434,-554,6,62,64
50.18,1028,-2916,-3108,20144,441,-445,8,62,64
50.20,1017,-3160,-2920,20184,421,-413,24,62,64
50.22,999,-2912,-3084,20200,425,-448,26,62,64
50.24,989,-3036,-2848,20052,394,-432,71,62,64
50.26,1009,-3236,-2940,20184,416,-563,-19,62,64
50.28,991,-3016,-3032,20032,441,-588,-16,62,64
50.30,994,-2956,-3032,20156,446,-539,-30,62,64
50.32,1032,-2860,-3104,20148,448,-468,-13,62,64
50.34,1007,-3040,-3000,20208,402,-408,33,62,64
50.36,1006,-3088,-2996,20152,407,-463,20,62,64
50.38,1010,-2936,-2916,20064,423,-498,-34,62,64
50.40,1016,-3060,-2868,20216,395,-382,-44,62,64
50.42,1011,-3064,-3140,20172,360,-560,-2,62,64
50.44,1019,-2788,-3036,19984,405,-427,43,62,64
50.46,1024,-3084,-3104,20088,433,-480,-54,62,64
50.48,1010,-2976,-2956,20192,437,-432,6,62,64
50.50,1006,-3004,-3004,20192,414,-426,43,62,64
50.52,1009,-3008,-2944,20248,441,-454,21,62,64
50.54,1006,-3028,-3124,20168,392,-431,-8,62,64
50.56,1020,-3228,-2996,20136,447,-477,-10,62,64
50.58,1010,-2992,-3032,20096,443,-564,-76,62,64
50.60,1011,-2820,-3060,20180,463,-493,20,62,64
50.62,1008,-2848,-3088,20048,387,-349,48,62,64
50.64,1021,-3024,-3132,20180,433,-325,42,62,64
50.66,1025,-3112,-2932,20084,383,-267,58,62,64
50.68,1024,-3084,-3076,20032,386,-378,82,62,64
50.70,1027,-3028,-3064,20168,460,-449,5,62,64
50.72,1002,-3008,-3188,20292,413,-380,-3,62,64
50.74,1025,-2892,-2936,20140,452,-405,23,62,64
50.76,1024,-3140,-2936,20152,414,-426,49,62,64
50.78,1007,-3172,-3004,20160,408,-482,35,62,64
50.80,1021,-2996,-3116,20068,413,-479,-17,62,64
50.82,1022,-2960,-3116,20052,397,-387,-26,62,64
50.84,1024,-2980,-3104,20076,431,-479,11,62,64
50.86,1022,-2920,-2888,20188,421,-432,28,62,64
50.88,1020,-3036,-3092,20200,380,-436,41,62,64
